% Gyrometer data recorded with 'snsrlog'
% 
% 
% Label description:
% 	 0: Default Label
% 	 1: pick up phone
% 
% Column description:
% 	 1: Seconds.milliseconds since 1970
% 	 2: Number of skipped measurements
% 	 3: Gyro X
% 	 4: Gyro Y
% 	 5: Gyro Z
% 	 6: Roll of the device
% 	 7: Pitch of the device
% 	 8: Yaw of the device
% 	 9: Quaternion X
% 	 10: Quaternion Y
% 	 11: Quaternion Z
% 	 12: Quaternion W
% 	 13: Label used for the current sample
% 
% 
1495573445.162	 0	 0.000554	 0.001882	 -0.000300	 0.020195	 -0.013636	 0.000438	 -0.006820	 0.010095	 0.000150	 0.999926	 1
1495573445.172	 0	 -0.000548	 0.001902	 0.002901	 0.020251	 -0.013636	 0.000462	 -0.006820	 0.010123	 0.000162	 0.999925	 1
1495573445.182	 0	 -0.001605	 0.001898	 0.001827	 0.020264	 -0.013750	 0.000481	 -0.006877	 0.010130	 0.000171	 0.999925	 1
1495573445.192	 0	 0.000535	 -0.001303	 0.000730	 0.020151	 -0.013709	 0.000486	 -0.006857	 0.010073	 0.000174	 0.999926	 1
1495573445.202	 0	 -0.000536	 0.001895	 0.001832	 0.020203	 -0.013646	 0.000500	 -0.006825	 0.010099	 0.000181	 0.999926	 1
1495573445.212	 0	 -0.002643	 0.004013	 -0.000291	 0.020203	 -0.013667	 0.000502	 -0.006836	 0.010100	 0.000182	 0.999926	 1
1495573445.222	 0	 0.001588	 0.000833	 0.002899	 0.020170	 -0.013539	 0.000524	 -0.006772	 0.010083	 0.000194	 0.999926	 1
1495573445.232	 0	 -0.000532	 -0.000235	 0.001806	 0.020098	 -0.013438	 0.000547	 -0.006721	 0.010047	 0.000206	 0.999927	 1
1495573445.242	 0	 -0.000539	 0.000834	 0.002888	 0.020113	 -0.013364	 0.000570	 -0.006685	 0.010054	 0.000218	 0.999927	 1
1495573445.252	 0	 -0.000534	 0.000834	 0.002888	 0.020138	 -0.013265	 0.000594	 -0.006635	 0.010067	 0.000230	 0.999927	 1
1495573445.262	 0	 -0.000530	 -0.000233	 0.002875	 0.020056	 -0.013161	 0.000627	 -0.006583	 0.010025	 0.000247	 0.999928	 1
1495573445.272	 0	 -0.002645	 0.000829	 0.001808	 0.020084	 -0.013083	 0.000651	 -0.006544	 0.010040	 0.000260	 0.999928	 1
1495573445.282	 0	 -0.000508	 0.000825	 0.001820	 0.020079	 -0.013014	 0.000669	 -0.006510	 0.010037	 0.000269	 0.999928	 1
1495573445.292	 0	 -0.000516	 0.000832	 0.002889	 0.020115	 -0.012958	 0.000693	 -0.006482	 0.010055	 0.000281	 0.999928	 1
1495573445.302	 0	 -0.002630	 0.001892	 0.001822	 0.020117	 -0.012882	 0.000711	 -0.006444	 0.010056	 0.000291	 0.999929	 1
1495573445.312	 0	 -0.002627	 0.002951	 0.001835	 0.020082	 -0.012883	 0.000729	 -0.006445	 0.010038	 0.000300	 0.999929	 1
1495573445.322	 0	 -0.001564	 0.001884	 0.001827	 0.020073	 -0.012932	 0.000752	 -0.006469	 0.010034	 0.000311	 0.999929	 1
1495573445.332	 0	 0.000573	 -0.001319	 0.000730	 0.020016	 -0.012957	 0.000764	 -0.006482	 0.010005	 0.000317	 0.999929	 1
1495573445.342	 0	 -0.000515	 -0.000238	 0.002876	 0.020071	 -0.012964	 0.000788	 -0.006485	 0.010033	 0.000329	 0.999929	 1
1495573445.352	 0	 0.002684	 0.000821	 0.002906	 0.020099	 -0.012979	 0.000817	 -0.006493	 0.010047	 0.000343	 0.999928	 1
1495573445.362	 0	 -0.001572	 0.000822	 0.001814	 0.020104	 -0.013004	 0.000835	 -0.006506	 0.010049	 0.000352	 0.999928	 1
1495573445.372	 0	 -0.001564	 0.002947	 0.001840	 0.020113	 -0.012958	 0.000858	 -0.006483	 0.010053	 0.000364	 0.999928	 1
1495573445.382	 0	 -0.000496	 0.002945	 0.001846	 0.020126	 -0.012947	 0.000887	 -0.006477	 0.010060	 0.000378	 0.999928	 1
1495573445.392	 0	 -0.001560	 0.001886	 0.001827	 0.020173	 -0.012907	 0.000906	 -0.006458	 0.010083	 0.000388	 0.999928	 1
1495573445.402	 0	 0.001635	 -0.003433	 0.001779	 0.020176	 -0.012839	 0.000923	 -0.006424	 0.010085	 0.000397	 0.999928	 1
1495573445.412	 0	 -0.001543	 0.002954	 0.001841	 0.020223	 -0.012738	 0.000937	 -0.006373	 0.010108	 0.000404	 0.999929	 1
1495573445.422	 0	 0.000573	 -0.001295	 0.002869	 0.020241	 -0.012733	 0.000966	 -0.006371	 0.010117	 0.000418	 0.999928	 1
1495573445.432	 0	 -0.002611	 0.001891	 0.001822	 0.020206	 -0.012752	 0.000983	 -0.006380	 0.010100	 0.000427	 0.999929	 1
1495573445.442	 0	 -0.001541	 0.001884	 0.001828	 0.020174	 -0.012740	 0.001001	 -0.006375	 0.010084	 0.000436	 0.999929	 1
1495573445.452	 0	 0.000576	 0.000813	 0.002895	 0.020094	 -0.012761	 0.001023	 -0.006385	 0.010043	 0.000447	 0.999929	 1
1495573445.462	 0	 -0.001568	 0.001884	 0.003966	 0.020089	 -0.012780	 0.001057	 -0.006395	 0.010041	 0.000464	 0.999929	 1
1495573445.472	 0	 -0.000476	 0.002933	 0.001846	 0.020111	 -0.012781	 0.001086	 -0.006395	 0.010051	 0.000479	 0.999929	 1
1495573445.482	 0	 0.001647	 0.000805	 0.002900	 0.020085	 -0.012728	 0.001114	 -0.006369	 0.010039	 0.000493	 0.999929	 1
1495573445.492	 0	 0.000601	 -0.001329	 0.000731	 0.020112	 -0.012714	 0.001132	 -0.006362	 0.010052	 0.000502	 0.999929	 1
1495573445.502	 0	 -0.000494	 0.000822	 0.003958	 0.020162	 -0.012704	 0.001167	 -0.006358	 0.010077	 0.000519	 0.999929	 1
1495573445.512	 0	 0.000599	 -0.000251	 0.001813	 0.020197	 -0.012656	 0.001190	 -0.006334	 0.010095	 0.000531	 0.999929	 1
1495573445.522	 0	 0.000593	 0.000823	 0.002895	 0.020236	 -0.012618	 0.001219	 -0.006315	 0.010114	 0.000546	 0.999929	 1
1495573445.532	 0	 -0.001532	 -0.000240	 0.001802	 0.020250	 -0.012641	 0.001243	 -0.006326	 0.010121	 0.000557	 0.999929	 1
1495573445.542	 0	 -0.001531	 0.000825	 0.001815	 0.020270	 -0.012670	 0.001261	 -0.006341	 0.010131	 0.000566	 0.999928	 1
1495573445.552	 0	 -0.002605	 0.002961	 0.002905	 0.020306	 -0.012692	 0.001291	 -0.006352	 0.010148	 0.000581	 0.999928	 1
1495573445.562	 0	 -0.000466	 -0.000237	 0.001808	 0.020311	 -0.012693	 0.001309	 -0.006353	 0.010151	 0.000590	 0.999928	 1
1495573445.572	 0	 0.000599	 0.000827	 0.001826	 0.020327	 -0.012705	 0.001326	 -0.006359	 0.010159	 0.000599	 0.999928	 1
1495573445.582	 0	 -0.000467	 0.000824	 0.001821	 0.020306	 -0.012700	 0.001344	 -0.006356	 0.010148	 0.000608	 0.999928	 1
1495573445.592	 0	 0.000596	 -0.001302	 0.001800	 0.020315	 -0.012691	 0.001367	 -0.006352	 0.010153	 0.000619	 0.999928	 1
1495573445.602	 0	 -0.000463	 -0.000233	 0.001808	 0.020337	 -0.012661	 0.001386	 -0.006337	 0.010164	 0.000628	 0.999928	 1
1495573445.612	 0	 -0.000457	 0.002951	 0.001847	 0.020318	 -0.012664	 0.001409	 -0.006339	 0.010154	 0.000640	 0.999928	 1
1495573445.622	 0	 -0.000464	 0.001894	 0.002903	 0.020360	 -0.012647	 0.001433	 -0.006330	 0.010175	 0.000652	 0.999928	 1
1495573445.632	 0	 -0.001514	 0.002948	 0.001841	 0.020351	 -0.012633	 0.001445	 -0.006323	 0.010170	 0.000658	 0.999928	 1
1495573445.642	 0	 -0.000442	 0.001881	 0.001834	 0.020357	 -0.012597	 0.001464	 -0.006306	 0.010174	 0.000668	 0.999928	 1
1495573445.652	 0	 0.000620	 0.000818	 0.002896	 0.020338	 -0.012546	 0.001481	 -0.006280	 0.010164	 0.000677	 0.999928	 1
1495573445.662	 0	 -0.002576	 0.000818	 0.002879	 0.020319	 -0.012539	 0.001510	 -0.006277	 0.010155	 0.000691	 0.999929	 1
1495573445.672	 0	 -0.000412	 0.001859	 0.000765	 0.020299	 -0.012505	 0.001517	 -0.006260	 0.010144	 0.000695	 0.999929	 1
1495573445.682	 0	 -0.000419	 0.000796	 0.001821	 0.020268	 -0.012473	 0.001535	 -0.006244	 0.010129	 0.000704	 0.999929	 1
1495573445.692	 0	 -0.000421	 0.000789	 0.001821	 0.020239	 -0.012480	 0.001557	 -0.006247	 0.010114	 0.000715	 0.999929	 1
1495573445.702	 0	 -0.000437	 0.001857	 0.002903	 0.020245	 -0.012514	 0.001581	 -0.006265	 0.010117	 0.000727	 0.999929	 1
1495573445.712	 0	 0.000630	 0.001854	 0.002909	 0.020261	 -0.012511	 0.001604	 -0.006263	 0.010125	 0.000739	 0.999929	 1
1495573445.722	 0	 -0.000424	 -0.000270	 0.001808	 0.020330	 -0.012506	 0.001623	 -0.006261	 0.010159	 0.000748	 0.999929	 1
1495573445.732	 0	 0.001710	 -0.000262	 0.002889	 0.020363	 -0.012436	 0.001641	 -0.006226	 0.010176	 0.000757	 0.999929	 1
1495573445.742	 0	 -0.000416	 0.002934	 0.002917	 0.020399	 -0.012426	 0.001670	 -0.006221	 0.010194	 0.000772	 0.999928	 1
1495573445.752	 0	 -0.001466	 0.002938	 0.001842	 0.020468	 -0.012419	 0.001689	 -0.006218	 0.010228	 0.000781	 0.999928	 1
1495573445.762	 0	 0.000668	 -0.000249	 0.001814	 0.020495	 -0.012380	 0.001708	 -0.006198	 0.010242	 0.000790	 0.999928	 1
1495573445.772	 0	 0.000689	 0.000807	 0.000759	 0.020501	 -0.012343	 0.001726	 -0.006180	 0.010245	 0.000800	 0.999928	 1
1495573445.782	 0	 0.000676	 0.000821	 0.002897	 0.020526	 -0.012290	 0.001744	 -0.006153	 0.010257	 0.000809	 0.999928	 1
1495573445.792	 0	 -0.001420	 0.002932	 0.000774	 0.020528	 -0.012253	 0.001757	 -0.006135	 0.010258	 0.000815	 0.999928	 1
1495573445.802	 0	 -0.000374	 0.001868	 0.001835	 0.020527	 -0.012299	 0.001775	 -0.006158	 0.010258	 0.000824	 0.999928	 1
1495573445.812	 0	 -0.000391	 0.000792	 0.002891	 0.020449	 -0.012322	 0.001797	 -0.006170	 0.010219	 0.000836	 0.999928	 1
1495573445.822	 0	 -0.000387	 0.001841	 0.001835	 0.020428	 -0.012362	 0.001815	 -0.006190	 0.010208	 0.000844	 0.999928	 1
1495573445.832	 0	 -0.001467	 0.002897	 0.002911	 0.020372	 -0.012396	 0.001843	 -0.006207	 0.010180	 0.000858	 0.999929	 1
1495573445.842	 0	 0.000644	 0.000761	 0.003965	 0.020327	 -0.012426	 0.001871	 -0.006222	 0.010157	 0.000872	 0.999929	 1
1495573445.852	 0	 0.000659	 0.001811	 0.001840	 0.020331	 -0.012464	 0.001894	 -0.006241	 0.010159	 0.000884	 0.999929	 1
1495573445.862	 0	 0.001718	 0.001817	 0.002914	 0.020349	 -0.012432	 0.001917	 -0.006225	 0.010168	 0.000895	 0.999929	 1
1495573445.872	 0	 -0.000408	 0.000763	 0.002890	 0.020383	 -0.012386	 0.001946	 -0.006202	 0.010185	 0.000910	 0.999928	 1
1495573445.882	 0	 0.002822	 -0.000299	 0.001826	 0.020449	 -0.012280	 0.001965	 -0.006150	 0.010218	 0.000919	 0.999928	 1
1495573445.892	 0	 -0.002480	 0.001848	 0.001824	 0.020519	 -0.012178	 0.001984	 -0.006099	 0.010253	 0.000929	 0.999928	 1
1495573445.902	 0	 -0.000333	 0.000794	 0.001823	 0.020585	 -0.012104	 0.001997	 -0.006062	 0.010286	 0.000936	 0.999928	 1
1495573445.912	 0	 -0.000315	 0.001855	 0.000767	 0.020620	 -0.012088	 0.002010	 -0.006054	 0.010303	 0.000943	 0.999928	 1
1495573445.922	 0	 -0.000327	 0.000793	 0.001823	 0.020606	 -0.012081	 0.002023	 -0.006051	 0.010297	 0.000949	 0.999928	 1
1495573445.932	 0	 -0.001395	 0.002915	 0.001843	 0.020605	 -0.012110	 0.002041	 -0.006065	 0.010296	 0.000958	 0.999928	 1
1495573445.942	 0	 -0.000336	 0.000768	 0.001823	 0.020537	 -0.012123	 0.002058	 -0.006072	 0.010262	 0.000967	 0.999928	 1
1495573445.952	 0	 0.000723	 -0.001375	 0.001802	 0.020467	 -0.012139	 0.002075	 -0.006080	 0.010227	 0.000975	 0.999929	 1
1495573445.962	 0	 0.000704	 0.001796	 0.002909	 0.020373	 -0.012191	 0.002092	 -0.006106	 0.010180	 0.000984	 0.999929	 1
1495573445.972	 0	 -0.002503	 0.002851	 0.002905	 0.020336	 -0.012248	 0.002125	 -0.006134	 0.010161	 0.001000	 0.999929	 1
1495573445.982	 0	 0.003879	 -0.000358	 0.002899	 0.020303	 -0.012286	 0.002153	 -0.006154	 0.010144	 0.001014	 0.999929	 1
1495573445.992	 0	 -0.001451	 0.001776	 0.002898	 0.020304	 -0.012290	 0.002182	 -0.006156	 0.010145	 0.001028	 0.999929	 1
1495573446.002	 0	 -0.000361	 -0.000358	 0.000739	 0.020332	 -0.012271	 0.002195	 -0.006146	 0.010159	 0.001035	 0.999929	 1
1495573446.012	 0	 -0.001407	 0.002839	 0.000773	 0.020379	 -0.012215	 0.002208	 -0.006118	 0.010182	 0.001042	 0.999929	 1
1495573446.022	 0	 -0.001395	 0.003920	 0.000787	 0.020551	 -0.012245	 0.002214	 -0.006133	 0.010268	 0.001044	 0.999928	 1
1495573446.032	 0	 0.000730	 -0.000327	 0.001815	 0.020571	 -0.012196	 0.002232	 -0.006109	 0.010278	 0.001053	 0.999928	 1
1495573446.042	 0	 -0.000494	 0.001877	 0.000818	 0.020625	 -0.012216	 0.002240	 -0.006119	 0.010305	 0.001057	 0.999928	 1
1495573446.052	 0	 0.002690	 -0.001312	 0.001865	 0.020630	 -0.012181	 0.002258	 -0.006102	 0.010308	 0.001066	 0.999928	 1
1495573446.062	 0	 -0.000495	 0.000812	 0.000805	 0.020584	 -0.012196	 0.002271	 -0.006109	 0.010285	 0.001073	 0.999928	 1
1495573446.072	 0	 -0.000510	 0.000813	 0.001874	 0.020511	 -0.012255	 0.002284	 -0.006139	 0.010248	 0.001079	 0.999928	 1
1495573446.082	 0	 -0.000524	 -0.000247	 0.002930	 0.020470	 -0.012280	 0.002312	 -0.006152	 0.010227	 0.001093	 0.999928	 1
1495573446.092	 0	 -0.000526	 -0.000250	 0.002930	 0.020396	 -0.012316	 0.002346	 -0.006170	 0.010190	 0.001110	 0.999928	 1
1495573446.102	 0	 0.001609	 -0.000256	 0.002941	 0.020365	 -0.012272	 0.002369	 -0.006148	 0.010175	 0.001122	 0.999929	 1
1495573446.112	 0	 -0.001574	 0.001870	 0.001881	 0.020384	 -0.012259	 0.002388	 -0.006141	 0.010184	 0.001131	 0.999929	 1
1495573446.122	 0	 0.000549	 0.000812	 0.002949	 0.020453	 -0.012200	 0.002418	 -0.006112	 0.010219	 0.001146	 0.999928	 1
1495573446.132	 0	 -0.000517	 0.000814	 0.002943	 0.020477	 -0.012176	 0.002447	 -0.006100	 0.010230	 0.001161	 0.999928	 1
1495573446.142	 0	 -0.001585	 -0.000244	 0.002924	 0.020526	 -0.012173	 0.002471	 -0.006099	 0.010255	 0.001173	 0.999928	 1
1495573446.152	 0	 -0.001558	 0.000809	 0.000800	 0.020561	 -0.012149	 0.002485	 -0.006087	 0.010273	 0.001180	 0.999928	 1
1495573446.162	 0	 -0.000502	 0.000813	 0.001874	 0.020571	 -0.012153	 0.002504	 -0.006089	 0.010278	 0.001189	 0.999928	 1
1495573446.172	 0	 -0.000490	 0.001869	 0.000818	 0.020551	 -0.012179	 0.002512	 -0.006102	 0.010267	 0.001193	 0.999928	 1
1495573446.182	 0	 -0.000491	 0.001865	 0.000818	 0.020508	 -0.012214	 0.002524	 -0.006119	 0.010246	 0.001200	 0.999928	 1
1495573446.192	 0	 0.000557	 -0.001322	 0.001854	 0.020463	 -0.012240	 0.002537	 -0.006133	 0.010223	 0.001206	 0.999928	 1
1495573446.202	 0	 -0.003706	 0.001873	 0.001870	 0.020434	 -0.012299	 0.002556	 -0.006162	 0.010209	 0.001215	 0.999928	 1
1495573446.212	 0	 -0.001586	 0.000809	 0.002937	 0.020395	 -0.012321	 0.002579	 -0.006173	 0.010189	 0.001227	 0.999928	 1
1495573446.222	 0	 -0.000506	 0.000800	 0.001874	 0.020382	 -0.012291	 0.002603	 -0.006159	 0.010183	 0.001239	 0.999928	 1
1495573446.232	 0	 -0.003701	 0.002931	 0.001883	 0.020392	 -0.012303	 0.002622	 -0.006165	 0.010187	 0.001248	 0.999928	 1
1495573446.242	 0	 -0.001570	 0.000803	 0.001868	 0.020429	 -0.012281	 0.002641	 -0.006153	 0.010206	 0.001258	 0.999928	 1
1495573446.252	 0	 -0.000513	 -0.000255	 0.002930	 0.020443	 -0.012224	 0.002670	 -0.006125	 0.010213	 0.001273	 0.999928	 1
1495573446.262	 0	 0.000569	 0.001864	 0.001893	 0.020452	 -0.012221	 0.002689	 -0.006124	 0.010218	 0.001282	 0.999928	 1
1495573446.272	 0	 0.001625	 0.000805	 0.002954	 0.020463	 -0.012168	 0.002713	 -0.006097	 0.010223	 0.001294	 0.999928	 1
1495573446.282	 0	 -0.001573	 0.000811	 0.002938	 0.020468	 -0.012137	 0.002736	 -0.006082	 0.010225	 0.001306	 0.999928	 1
1495573446.292	 0	 -0.000497	 0.000801	 0.001874	 0.020447	 -0.012171	 0.002755	 -0.006099	 0.010215	 0.001315	 0.999928	 1
1495573446.302	 0	 -0.001577	 0.000810	 0.002938	 0.020463	 -0.012206	 0.002779	 -0.006117	 0.010223	 0.001327	 0.999928	 1
1495573446.312	 0	 -0.001580	 0.000806	 0.002937	 0.020418	 -0.012261	 0.002807	 -0.006145	 0.010200	 0.001341	 0.999928	 1
1495573446.322	 0	 -0.000518	 -0.001325	 0.002917	 0.020364	 -0.012291	 0.002836	 -0.006160	 0.010173	 0.001355	 0.999928	 1
1495573446.332	 0	 -0.003694	 0.006114	 0.001922	 0.020353	 -0.012331	 0.002849	 -0.006180	 0.010167	 0.001362	 0.999928	 1
1495573446.342	 0	 0.000559	 -0.000275	 0.001866	 0.020308	 -0.012357	 0.002867	 -0.006193	 0.010145	 0.001371	 0.999928	 1
1495573446.352	 0	 -0.001566	 0.003982	 0.001907	 0.020340	 -0.012355	 0.002891	 -0.006192	 0.010161	 0.001383	 0.999928	 1
1495573446.362	 0	 -0.000519	 -0.001330	 0.002917	 0.020338	 -0.012334	 0.002915	 -0.006182	 0.010160	 0.001395	 0.999928	 1
1495573446.372	 0	 0.000565	 0.000789	 0.001880	 0.020358	 -0.012300	 0.002934	 -0.006165	 0.010170	 0.001404	 0.999928	 1
1495573446.383	 0	 -0.000501	 0.000792	 0.001874	 0.020381	 -0.012283	 0.002953	 -0.006156	 0.010181	 0.001414	 0.999928	 1
1495573446.392	 0	 0.002687	 -0.000268	 0.002947	 0.020439	 -0.012248	 0.002977	 -0.006139	 0.010210	 0.001426	 0.999928	 1
1495573446.402	 0	 0.000559	 0.001863	 0.002962	 0.020459	 -0.012214	 0.003001	 -0.006122	 0.010220	 0.001438	 0.999928	 1
1495573446.413	 0	 -0.001575	 0.000803	 0.002937	 0.020466	 -0.012205	 0.003025	 -0.006117	 0.010224	 0.001450	 0.999928	 1
1495573446.422	 0	 -0.002617	 0.002919	 0.000820	 0.020485	 -0.012256	 0.003044	 -0.006143	 0.010233	 0.001459	 0.999928	 1
1495573446.432	 0	 0.007995	 -0.007713	 0.003952	 0.020450	 -0.012243	 0.003072	 -0.006137	 0.010215	 0.001473	 0.999928	 1
1495573446.442	 0	 -0.000524	 -0.000258	 0.003999	 0.020410	 -0.012238	 0.003106	 -0.006134	 0.010195	 0.001490	 0.999928	 1
1495573446.452	 0	 0.001617	 -0.001332	 0.002928	 0.020382	 -0.012252	 0.003134	 -0.006142	 0.010181	 0.001505	 0.999928	 1
1495573446.462	 0	 0.000555	 0.001857	 0.002962	 0.020376	 -0.012274	 0.003158	 -0.006153	 0.010178	 0.001516	 0.999928	 1
1495573446.472	 0	 -0.001579	 0.001860	 0.002950	 0.020373	 -0.012292	 0.003182	 -0.006162	 0.010176	 0.001528	 0.999928	 1
1495573446.482	 0	 -0.000522	 0.001863	 0.004025	 0.020365	 -0.012268	 0.003216	 -0.006150	 0.010172	 0.001545	 0.999928	 1
1495573446.492	 0	 -0.000498	 0.001851	 0.001887	 0.020382	 -0.012253	 0.003235	 -0.006143	 0.010181	 0.001555	 0.999928	 1
1495573446.502	 0	 -0.000501	 0.000787	 0.001874	 0.020367	 -0.012276	 0.003259	 -0.006154	 0.010173	 0.001567	 0.999928	 1
1495573446.513	 0	 0.000565	 -0.000278	 0.001866	 0.020376	 -0.012246	 0.003277	 -0.006139	 0.010178	 0.001576	 0.999928	 1
1495573446.523	 0	 -0.001562	 0.001852	 0.001881	 0.020390	 -0.012221	 0.003301	 -0.006127	 0.010184	 0.001588	 0.999928	 1
1495573446.532	 0	 0.000556	 -0.001335	 0.002923	 0.020381	 -0.012194	 0.003325	 -0.006114	 0.010180	 0.001600	 0.999928	 1
1495573446.543	 0	 -0.000496	 0.000788	 0.001874	 0.020412	 -0.012209	 0.003344	 -0.006121	 0.010195	 0.001609	 0.999928	 1
1495573446.553	 0	 -0.001564	 -0.000274	 0.001855	 0.020412	 -0.012225	 0.003362	 -0.006129	 0.010196	 0.001619	 0.999928	 1
1495573446.563	 0	 -0.000495	 0.000786	 0.001874	 0.020390	 -0.012212	 0.003381	 -0.006123	 0.010184	 0.001628	 0.999928	 1
1495573446.573	 0	 0.000557	 -0.001338	 0.002922	 0.020371	 -0.012216	 0.003404	 -0.006125	 0.010175	 0.001640	 0.999928	 1
1495573446.583	 0	 0.000561	 0.000785	 0.002949	 0.020332	 -0.012214	 0.003433	 -0.006124	 0.010155	 0.001654	 0.999928	 1
1495573446.593	 0	 -0.002630	 -0.000279	 0.001850	 0.020313	 -0.012228	 0.003451	 -0.006131	 0.010145	 0.001663	 0.999928	 1
1495573446.603	 0	 -0.001557	 0.002906	 0.001894	 0.020312	 -0.012244	 0.003470	 -0.006139	 0.010145	 0.001673	 0.999928	 1
1495573446.613	 0	 0.000562	 0.001845	 0.002962	 0.020322	 -0.012248	 0.003499	 -0.006141	 0.010150	 0.001687	 0.999928	 1
1495573446.623	 0	 0.000559	 0.000781	 0.002948	 0.020325	 -0.012260	 0.003523	 -0.006148	 0.010151	 0.001699	 0.999928	 1
1495573446.633	 0	 -0.001569	 0.003977	 0.002976	 0.020384	 -0.012279	 0.003548	 -0.006157	 0.010181	 0.001711	 0.999928	 1
1495573446.643	 0	 -0.000486	 -0.000291	 0.000792	 0.020350	 -0.012280	 0.003566	 -0.006158	 0.010164	 0.001720	 0.999928	 1
1495573446.653	 0	 -0.001572	 0.000786	 0.002937	 0.020365	 -0.012264	 0.003579	 -0.006150	 0.010171	 0.001727	 0.999928	 1
1495573446.663	 0	 0.000572	 0.000777	 0.001880	 0.020378	 -0.012264	 0.003593	 -0.006150	 0.010177	 0.001734	 0.999928	 1
1495573446.673	 0	 -0.000483	 -0.000290	 0.000792	 0.020380	 -0.012240	 0.003606	 -0.006138	 0.010179	 0.001740	 0.999928	 1
1495573446.683	 0	 -0.000505	 -0.000280	 0.002930	 0.020350	 -0.012221	 0.003629	 -0.006128	 0.010164	 0.001752	 0.999928	 1
1495573446.693	 0	 -0.001556	 0.001840	 0.001881	 0.020332	 -0.012236	 0.003648	 -0.006136	 0.010155	 0.001762	 0.999928	 1
1495573446.703	 0	 -0.002621	 0.001842	 0.001876	 0.020346	 -0.012232	 0.003672	 -0.006135	 0.010161	 0.001774	 0.999928	 1
1495573446.713	 0	 -0.000488	 0.001838	 0.001887	 0.020346	 -0.012242	 0.003696	 -0.006140	 0.010161	 0.001786	 0.999928	 1
1495573446.723	 0	 -0.001559	 -0.001350	 0.001842	 0.020327	 -0.012234	 0.003720	 -0.006135	 0.010152	 0.001797	 0.999928	 1
1495573446.733	 0	 0.003759	 -0.003481	 0.002913	 0.020300	 -0.012205	 0.003743	 -0.006121	 0.010138	 0.001809	 0.999928	 1
1495573446.743	 0	 -0.001553	 0.000774	 0.001868	 0.020283	 -0.012176	 0.003761	 -0.006107	 0.010130	 0.001819	 0.999928	 1
1495573446.753	 0	 0.001645	 -0.000293	 0.001872	 0.020301	 -0.012178	 0.003774	 -0.006108	 0.010139	 0.001825	 0.999928	 1
1495573446.763	 0	 -0.001554	 -0.000289	 0.001855	 0.020287	 -0.012175	 0.003793	 -0.006106	 0.010132	 0.001834	 0.999928	 1
1495573446.773	 0	 -0.000497	 0.000779	 0.002943	 0.020296	 -0.012167	 0.003817	 -0.006102	 0.010136	 0.001846	 0.999928	 1
1495573446.783	 0	 0.000580	 -0.000293	 0.001867	 0.020292	 -0.012153	 0.003835	 -0.006096	 0.010134	 0.001856	 0.999928	 1
1495573446.793	 0	 0.000584	 0.001830	 0.001893	 0.020262	 -0.012150	 0.003853	 -0.006094	 0.010119	 0.001865	 0.999928	 1
1495573446.803	 0	 -0.001551	 -0.000294	 0.001855	 0.020247	 -0.012127	 0.003872	 -0.006083	 0.010111	 0.001874	 0.999929	 1
1495573446.813	 0	 -0.000480	 0.000766	 0.001874	 0.020233	 -0.012112	 0.003885	 -0.006075	 0.010105	 0.001881	 0.999929	 1
1495573446.823	 0	 -0.001533	 0.002885	 0.000826	 0.020212	 -0.012139	 0.003898	 -0.006089	 0.010094	 0.001887	 0.999929	 1
1495573446.833	 0	 0.002716	 -0.001369	 0.001865	 0.020205	 -0.012117	 0.003916	 -0.006078	 0.010090	 0.001897	 0.999929	 1
1495573446.843	 0	 -0.000491	 0.000767	 0.002943	 0.020178	 -0.012108	 0.003940	 -0.006074	 0.010077	 0.001909	 0.999929	 1
1495573446.853	 0	 -0.000492	 0.000766	 0.002943	 0.020163	 -0.012123	 0.003963	 -0.006081	 0.010069	 0.001920	 0.999929	 1
1495573446.863	 0	 -0.000490	 0.001828	 0.002956	 0.020152	 -0.012127	 0.003998	 -0.006083	 0.010063	 0.001938	 0.999929	 1
1495573446.873	 0	 -0.001557	 0.000764	 0.002937	 0.020114	 -0.012109	 0.004026	 -0.006074	 0.010045	 0.001952	 0.999929	 1
1495573446.883	 0	 -0.000500	 0.000768	 0.004012	 0.020119	 -0.012082	 0.004061	 -0.006061	 0.010047	 0.001969	 0.999929	 1
1495573446.893	 0	 -0.002620	 0.001830	 0.002945	 0.020141	 -0.012097	 0.004085	 -0.006069	 0.010058	 0.001981	 0.999929	 1
1495573446.903	 0	 -0.000468	 -0.000311	 0.000792	 0.020160	 -0.012122	 0.004104	 -0.006081	 0.010067	 0.001991	 0.999929	 1
1495573446.913	 0	 -0.001543	 0.000763	 0.001869	 0.020212	 -0.012129	 0.004123	 -0.006085	 0.010093	 0.002000	 0.999929	 1
1495573446.923	 0	 -0.000475	 0.001826	 0.001887	 0.020260	 -0.012132	 0.004142	 -0.006087	 0.010117	 0.002010	 0.999928	 1
1495573446.933	 0	 -0.001532	 -0.000302	 0.000787	 0.020286	 -0.012109	 0.004151	 -0.006075	 0.010130	 0.002014	 0.999928	 1
1495573446.943	 0	 -0.000488	 0.000771	 0.002943	 0.020300	 -0.012139	 0.004175	 -0.006090	 0.010137	 0.002026	 0.999928	 1
1495573446.953	 0	 0.002709	 -0.001363	 0.002934	 0.020267	 -0.012110	 0.004198	 -0.006076	 0.010120	 0.002037	 0.999928	 1
1495573446.963	 0	 0.001658	 0.001822	 0.001898	 0.020276	 -0.012117	 0.004211	 -0.006080	 0.010125	 0.002044	 0.999928	 1
1495573446.973	 0	 -0.001559	 -0.001358	 0.002911	 0.020245	 -0.012134	 0.004234	 -0.006088	 0.010109	 0.002056	 0.999928	 1
1495573446.983	 0	 -0.001556	 -0.000295	 0.002924	 0.020233	 -0.012133	 0.004258	 -0.006088	 0.010103	 0.002068	 0.999928	 1
1495573446.993	 0	 -0.000487	 0.000765	 0.002943	 0.020234	 -0.012127	 0.004287	 -0.006085	 0.010104	 0.002082	 0.999928	 1
1495573447.003	 0	 -0.001525	 0.002879	 0.000826	 0.020219	 -0.012109	 0.004306	 -0.006076	 0.010096	 0.002092	 0.999928	 1
1495573447.013	 0	 0.000585	 0.001821	 0.002962	 0.020199	 -0.012078	 0.004335	 -0.006061	 0.010086	 0.002106	 0.999929	 1
1495573447.023	 0	 -0.001539	 -0.000306	 0.001856	 0.020198	 -0.012066	 0.004358	 -0.006055	 0.010086	 0.002118	 0.999929	 1
1495573447.033	 0	 0.000581	 -0.002429	 0.002910	 0.020215	 -0.012039	 0.004388	 -0.006041	 0.010094	 0.002133	 0.999929	 1
1495573447.043	 0	 0.001637	 0.001867	 0.001925	 0.020228	 -0.012017	 0.004406	 -0.006030	 0.010100	 0.002142	 0.999929	 1
1495573447.053	 0	 0.001635	 0.000805	 0.001912	 0.020260	 -0.012004	 0.004425	 -0.006024	 0.010116	 0.002152	 0.999928	 1
1495573447.063	 0	 0.000572	 0.001871	 0.001919	 0.020310	 -0.011967	 0.004450	 -0.006006	 0.010141	 0.002164	 0.999928	 1
1495573447.073	 0	 -0.002659	 -0.003427	 0.003975	 0.020316	 -0.011969	 0.004495	 -0.006007	 0.010144	 0.002187	 0.999928	 1
1495573447.083	 0	 -0.002673	 -0.003421	 0.005044	 0.020273	 -0.012037	 0.004546	 -0.006041	 0.010123	 0.002212	 0.999928	 1
1495573447.093	 0	 -0.001599	 0.000828	 0.005102	 0.020240	 -0.012065	 0.004601	 -0.006055	 0.010106	 0.002239	 0.999928	 1
1495573447.103	 0	 -0.003167	 -0.001038	 0.052106	 0.020254	 -0.011929	 0.004922	 -0.005989	 0.010112	 0.002400	 0.999928	 1
1495573447.113	 0	 -0.003580	 -0.001332	 0.192137	 0.020358	 -0.011344	 0.006459	 -0.005705	 0.010160	 0.003172	 0.999927	 1
1495573447.123	 0	 -0.004051	 -0.001596	 0.337513	 0.020467	 -0.010744	 0.009444	 -0.005420	 0.010207	 0.004667	 0.999922	 1
1495573447.133	 0	 -0.005580	 -0.002928	 0.481802	 0.020564	 -0.010150	 0.013856	 -0.005146	 0.010246	 0.006875	 0.999911	 1
1495573447.143	 0	 -0.004679	 -0.002292	 0.598333	 0.020636	 -0.009675	 0.019505	 -0.004938	 0.010270	 0.009702	 0.999888	 1
1495573447.153	 0	 -0.008724	 -0.005042	 0.677383	 0.020669	 -0.009405	 0.026041	 -0.004837	 0.010272	 0.012971	 0.999851	 1
1495573447.163	 0	 -0.008039	 -0.001656	 0.713774	 0.020690	 -0.009281	 0.033037	 -0.004810	 0.010267	 0.016469	 0.999800	 1
1495573447.173	 0	 -0.004751	 -0.002772	 0.705225	 0.020715	 -0.009237	 0.040054	 -0.004825	 0.010263	 0.019976	 0.999736	 1
1495573447.183	 0	 -0.006317	 -0.001997	 0.651777	 0.020774	 -0.009325	 0.046685	 -0.004903	 0.010275	 0.023290	 0.999664	 1
1495573447.193	 0	 -0.004266	 -0.001449	 0.558793	 0.020757	 -0.009610	 0.052438	 -0.005075	 0.010249	 0.026164	 0.999592	 1
1495573447.203	 0	 -0.008651	 -0.001934	 0.468970	 0.020733	 -0.009960	 0.057288	 -0.005274	 0.010219	 0.028586	 0.999525	 1
1495573447.213	 0	 -0.006628	 -0.003500	 0.378098	 0.020671	 -0.010342	 0.061255	 -0.005485	 0.010172	 0.030567	 0.999466	 1
1495573447.223	 0	 -0.001425	 -0.002934	 0.289406	 0.020617	 -0.010725	 0.064338	 -0.005691	 0.010130	 0.032106	 0.999417	 1
1495573447.233	 0	 -0.000447	 0.000812	 0.197525	 0.020574	 -0.011074	 0.066518	 -0.005875	 0.010097	 0.033194	 0.999381	 1
1495573447.243	 0	 -0.000519	 0.001370	 0.102401	 0.020536	 -0.011481	 0.067763	 -0.006085	 0.010067	 0.033814	 0.999359	 1
1495573447.253	 0	 0.000478	 0.001914	 0.008342	 0.020468	 -0.011923	 0.068066	 -0.006306	 0.010025	 0.033963	 0.999353	 1
1495573447.263	 0	 -0.001598	 0.001888	 0.002986	 0.020460	 -0.011927	 0.068090	 -0.006308	 0.010021	 0.033975	 0.999353	 1
1495573447.273	 0	 -0.003734	 -0.000235	 0.002949	 0.020456	 -0.011929	 0.068120	 -0.006309	 0.010018	 0.033990	 0.999352	 1
1495573447.283	 0	 -0.001610	 0.000830	 0.004042	 0.020459	 -0.011943	 0.068160	 -0.006316	 0.010020	 0.034010	 0.999351	 1
1495573447.293	 0	 0.000523	 0.000826	 0.004053	 0.020472	 -0.011930	 0.068206	 -0.006310	 0.010026	 0.034033	 0.999350	 1
1495573447.303	 0	 0.000354	 0.001977	 0.020101	 0.020476	 -0.011889	 0.068341	 -0.006290	 0.010029	 0.034100	 0.999348	 1
1495573447.313	 0	 0.000325	 -0.000650	 0.122691	 0.020551	 -0.011540	 0.069253	 -0.006122	 0.010069	 0.034558	 0.999333	 1
1495573447.323	 0	 -0.010132	 -0.003895	 0.303254	 0.020600	 -0.010917	 0.071763	 -0.005824	 0.010097	 0.035815	 0.999290	 1
1495573447.333	 0	 -0.017675	 -0.003803	 0.511667	 0.020663	 -0.010107	 0.076314	 -0.005444	 0.010131	 0.038093	 0.999208	 1
1495573447.343	 0	 -0.016543	 -0.005931	 0.706202	 0.020660	 -0.009370	 0.082825	 -0.005108	 0.010127	 0.041349	 0.999080	 1
1495573447.353	 0	 -0.010636	 -0.006210	 0.851611	 0.020672	 -0.009315	 0.090920	 -0.005122	 0.010114	 0.045393	 0.998905	 1
1495573447.363	 0	 -0.006325	 -0.006761	 0.946767	 0.020684	 -0.009191	 0.100088	 -0.005107	 0.010099	 0.049972	 0.998686	 1
1495573447.373	 0	 -0.011129	 -0.006479	 0.996987	 0.020724	 -0.009087	 0.109843	 -0.005105	 0.010097	 0.054843	 0.998431	 1
1495573447.383	 0	 -0.012698	 -0.011538	 1.042883	 0.020820	 -0.009007	 0.120037	 -0.005119	 0.010121	 0.059932	 0.998138	 1
1495573447.393	 0	 -0.015385	 -0.006994	 1.095304	 0.020840	 -0.008924	 0.130728	 -0.005133	 0.010106	 0.065267	 0.997803	 1
1495573447.403	 0	 -0.010847	 -0.003421	 1.168058	 0.020895	 -0.008798	 0.142069	 -0.005129	 0.010109	 0.070924	 0.997417	 1
1495573447.413	 0	 -0.008804	 -0.009220	 1.274896	 0.020926	 -0.008619	 0.154413	 -0.005103	 0.010099	 0.077080	 0.996961	 1
1495573447.423	 0	 -0.008080	 -0.005307	 1.407502	 0.020983	 -0.008220	 0.167978	 -0.004975	 0.010109	 0.083842	 0.996415	 1
1495573447.433	 0	 -0.015255	 -0.009676	 1.578447	 0.021013	 -0.008016	 0.183150	 -0.004952	 0.010096	 0.091399	 0.995751	 1
1495573447.443	 0	 -0.020165	 -0.010924	 1.737684	 0.021021	 -0.007853	 0.199972	 -0.004956	 0.010066	 0.099772	 0.994947	 1
1495573447.453	 0	 -0.021439	 -0.018264	 1.755760	 0.020999	 -0.007677	 0.217544	 -0.004955	 0.010020	 0.108511	 0.994032	 1
1495573447.463	 0	 -0.039112	 -0.016906	 1.414679	 0.020971	 -0.007713	 0.232407	 -0.005046	 0.009968	 0.115895	 0.993199	 1
1495573447.473	 0	 -0.066768	 -0.024913	 1.107637	 0.020862	 -0.008069	 0.244044	 -0.005274	 0.009862	 0.121670	 0.992508	 1
1495573447.483	 0	 -0.118498	 -0.033631	 0.857117	 0.020647	 -0.008889	 0.253192	 -0.005712	 0.009679	 0.126204	 0.991941	 1
1495573447.493	 0	 -0.228623	 -0.039734	 0.482318	 0.020299	 -0.010800	 0.258981	 -0.006665	 0.009367	 0.129066	 0.991569	 1
1495573447.503	 0	 -0.046536	 0.011674	 0.222007	 0.020412	 -0.011812	 0.261660	 -0.007187	 0.009348	 0.130388	 0.991393	 1
1495573447.513	 0	 -0.080353	 0.007860	 0.291266	 0.020558	 -0.012444	 0.264402	 -0.007522	 0.009369	 0.131743	 0.991211	 1
1495573447.523	 0	 -0.159143	 0.014312	 0.279172	 0.020679	 -0.013775	 0.267228	 -0.008203	 0.009329	 0.133136	 0.991020	 1
1495573447.533	 0	 -0.153490	 0.006714	 0.446938	 0.020873	 -0.015254	 0.271126	 -0.008967	 0.009309	 0.135058	 0.990753	 1
1495573447.543	 0	 -0.138750	 0.027027	 0.667475	 0.021131	 -0.016563	 0.277068	 -0.009661	 0.009320	 0.137992	 0.990342	 1
1495573447.553	 0	 -0.129722	 0.059793	 1.024964	 0.021684	 -0.017670	 0.286400	 -0.010291	 0.009470	 0.142602	 0.989681	 1
1495573447.563	 0	 -0.136642	 0.115426	 1.282166	 0.023001	 -0.018719	 0.298527	 -0.010965	 0.009980	 0.148587	 0.988788	 1
1495573447.573	 0	 -0.151902	 0.019332	 1.395288	 0.023723	 -0.019867	 0.312210	 -0.011656	 0.010172	 0.155337	 0.987740	 1
1495573447.583	 0	 -0.150741	 -0.056813	 1.273565	 0.023588	 -0.021048	 0.325265	 -0.012294	 0.009934	 0.161774	 0.986701	 1
1495573447.593	 0	 -0.174262	 -0.147214	 1.063881	 0.022592	 -0.022467	 0.336356	 -0.012965	 0.009255	 0.167240	 0.985787	 1
1495573447.603	 0	 -0.155256	 -0.144524	 0.783941	 0.021234	 -0.023903	 0.344926	 -0.013595	 0.008408	 0.171462	 0.985061	 1
1495573447.613	 0	 -0.186196	 -0.005094	 0.610175	 0.021132	 -0.025473	 0.351132	 -0.014385	 0.008178	 0.174509	 0.984516	 1
1495573447.623	 0	 -0.188892	 0.019695	 0.865952	 0.021442	 -0.027198	 0.359023	 -0.015293	 0.008119	 0.178379	 0.983810	 1
1495573447.633	 0	 -0.184515	 0.232993	 0.992593	 0.023204	 -0.028845	 0.368772	 -0.016304	 0.008760	 0.183147	 0.982911	 1
1495573447.643	 0	 -0.233205	 0.590917	 0.721998	 0.028308	 -0.030838	 0.376798	 -0.017795	 0.011014	 0.187031	 0.982131	 1
1495573447.653	 0	 -0.238192	 1.057317	 0.473275	 0.037940	 -0.032944	 0.382156	 -0.019771	 0.015493	 0.189550	 0.981550	 1
1495573447.663	 0	 -0.198728	 1.488724	 0.449912	 0.051625	 -0.034926	 0.386430	 -0.022086	 0.021974	 0.191479	 0.981002	 1
1495573447.673	 0	 -0.173264	 1.810126	 0.718026	 0.069215	 -0.036191	 0.392993	 -0.024490	 0.030399	 0.194472	 0.980131	 1
1495573447.683	 0	 -0.152172	 2.052303	 0.882524	 0.089180	 -0.037089	 0.401467	 -0.027039	 0.039979	 0.198346	 0.978943	 1
1495573447.693	 0	 -0.149489	 2.372308	 0.887532	 0.112095	 -0.037735	 0.410413	 -0.029854	 0.050995	 0.202378	 0.977523	 1
1495573447.703	 0	 -0.114177	 2.686094	 0.932188	 0.138347	 -0.037779	 0.419532	 -0.032820	 0.063667	 0.206419	 0.975838	 1
1495573447.713	 0	 -0.095352	 2.773506	 0.982532	 0.166029	 -0.037329	 0.429202	 -0.035828	 0.077042	 0.210675	 0.973857	 1
1495573447.723	 0	 -0.136100	 2.597050	 0.971602	 0.192688	 -0.036749	 0.438911	 -0.038787	 0.089891	 0.214927	 0.971711	 1
1495573447.733	 0	 -0.178933	 2.207211	 0.819075	 0.215863	 -0.036689	 0.447714	 -0.041691	 0.100968	 0.218737	 0.969650	 1
1495573447.743	 0	 -0.150414	 1.832721	 0.580525	 0.235038	 -0.036826	 0.454154	 -0.044207	 0.110103	 0.221437	 0.967930	 1
1495573447.753	 0	 -0.204052	 1.572791	 0.463743	 0.251348	 -0.037403	 0.459325	 -0.046595	 0.117808	 0.223531	 0.966428	 1
1495573447.763	 0	 -0.250730	 1.573264	 0.340570	 0.266825	 -0.038835	 0.463479	 -0.049274	 0.125017	 0.225073	 0.965031	 1
1495573447.773	 0	 -0.231245	 1.730025	 0.242111	 0.283756	 -0.040356	 0.466620	 -0.052118	 0.132925	 0.226054	 0.963594	 1
1495573447.783	 0	 -0.253096	 1.590932	 0.265945	 0.300269	 -0.041954	 0.469715	 -0.054968	 0.140607	 0.226985	 0.962126	 1
1495573447.793	 0	 -0.357806	 1.139516	 0.302617	 0.312925	 -0.044160	 0.473498	 -0.057739	 0.146326	 0.228278	 0.960804	 1
1495573447.803	 0	 -0.538394	 0.597316	 0.237291	 0.320349	 -0.047897	 0.477436	 -0.060671	 0.149333	 0.229653	 0.959832	 1
1495573447.813	 0	 -0.714125	 0.162280	 0.135890	 0.323052	 -0.053756	 0.481049	 -0.064058	 0.149820	 0.230829	 0.959254	 1
1495573447.823	 0	 -0.761829	 -0.050059	 0.170449	 0.323155	 -0.060401	 0.484829	 -0.067531	 0.148947	 0.232097	 0.958846	 1
1495573447.833	 0	 -0.634663	 -0.037612	 0.349791	 0.322908	 -0.065807	 0.489813	 -0.070457	 0.147999	 0.234052	 0.958307	 1
1495573447.843	 0	 -0.306550	 0.231232	 0.436058	 0.324712	 -0.068204	 0.495049	 -0.072202	 0.148382	 0.236299	 0.957566	 1
1495573447.853	 0	 0.071531	 0.728826	 0.378944	 0.330908	 -0.067108	 0.498855	 -0.072699	 0.151346	 0.237987	 0.956646	 1
1495573447.863	 0	 0.393708	 0.955401	 0.315005	 0.340250	 -0.063090	 0.500883	 -0.072053	 0.156238	 0.238959	 0.955665	 1
1495573447.873	 0	 0.673675	 0.694490	 0.321830	 0.348074	 -0.056425	 0.501803	 -0.069887	 0.160773	 0.239698	 0.954889	 1
1495573447.883	 0	 0.932977	 0.336466	 0.448151	 0.352249	 -0.046912	 0.502659	 -0.065928	 0.163921	 0.240797	 0.954358	 1
1495573447.893	 0	 1.047505	 0.245092	 0.494669	 0.354695	 -0.035665	 0.503701	 -0.060954	 0.166453	 0.242203	 0.953895	 1
1495573447.903	 0	 1.022480	 0.539596	 0.492804	 0.359167	 -0.024410	 0.504676	 -0.056221	 0.169952	 0.243524	 0.953232	 1
1495573447.913	 0	 0.925621	 0.929119	 0.541969	 0.367469	 -0.013720	 0.506208	 -0.052279	 0.175188	 0.244976	 0.952136	 1
1495573447.923	 0	 0.770958	 1.278413	 0.603164	 0.379312	 -0.004157	 0.508704	 -0.049411	 0.181942	 0.246727	 0.950569	 1
1495573447.933	 0	 0.754543	 1.315897	 0.648434	 0.392519	 0.005056	 0.511787	 -0.046958	 0.189279	 0.248727	 0.948738	 1
1495573447.943	 0	 0.836215	 1.003145	 0.636477	 0.403350	 0.014954	 0.514532	 -0.043881	 0.195577	 0.250722	 0.947081	 1
1495573447.953	 0	 0.928465	 0.444615	 0.589490	 0.409234	 0.025535	 0.516469	 -0.039800	 0.199631	 0.252534	 0.945933	 1
1495573447.963	 0	 0.985324	 -0.126523	 0.558198	 0.409206	 0.036583	 0.517708	 -0.034687	 0.200961	 0.254184	 0.945411	 1
1495573447.973	 0	 0.988563	 -0.346272	 0.615383	 0.406019	 0.047962	 0.519273	 -0.029047	 0.200834	 0.256057	 0.945122	 1
1495573447.983	 0	 0.910462	 -0.234284	 0.656966	 0.403155	 0.058943	 0.521524	 -0.023702	 0.200806	 0.258187	 0.944698	 1
1495573447.993	 0	 0.893874	 0.057605	 0.763081	 0.402700	 0.069879	 0.524748	 -0.018786	 0.201907	 0.260726	 0.943876	 1
1495573448.003	 0	 1.022642	 0.480491	 0.765739	 0.406104	 0.081849	 0.528001	 -0.013893	 0.204966	 0.263334	 0.942577	 1
1495573448.013	 0	 1.259727	 0.841170	 0.702996	 0.413517	 0.095487	 0.529784	 -0.008605	 0.210131	 0.265393	 0.940924	 1
1495573448.023	 0	 1.433514	 0.906874	 0.721821	 0.422460	 0.111066	 0.530597	 -0.002516	 0.216245	 0.267205	 0.939060	 1
1495573448.033	 0	 1.354411	 0.617149	 0.786266	 0.429344	 0.126619	 0.531838	 0.003772	 0.221372	 0.269254	 0.937274	 1
1495573448.043	 0	 1.302785	 0.157773	 0.941772	 0.431726	 0.142113	 0.534590	 0.010456	 0.224380	 0.272010	 0.935711	 1
1495573448.053	 0	 1.340540	 -0.339415	 1.013908	 0.429017	 0.158198	 0.538128	 0.018018	 0.225090	 0.275139	 0.934510	 1
1495573448.063	 0	 1.337413	 -0.756025	 1.033368	 0.421939	 0.174527	 0.541966	 0.026270	 0.223810	 0.278332	 0.933676	 1
1495573448.073	 0	 1.668193	 -1.137072	 1.055023	 0.410464	 0.192633	 0.545381	 0.036038	 0.220711	 0.281324	 0.933191	 1
1495573448.083	 0	 2.093581	 -0.189123	 0.942749	 0.406081	 0.214536	 0.546733	 0.046842	 0.221355	 0.283696	 0.931839	 1
1495573448.093	 0	 2.538859	 -0.207729	 0.795208	 0.405070	 0.239848	 0.544455	 0.059179	 0.223864	 0.284669	 0.930240	 1
1495573448.103	 0	 2.710348	 -0.216943	 0.915724	 0.403203	 0.267741	 0.541971	 0.072875	 0.226209	 0.285664	 0.928394	 1
1495573448.113	 0	 2.577953	 0.084494	 0.980725	 0.403791	 0.295402	 0.540541	 0.085986	 0.229637	 0.287160	 0.925966	 1
1495573448.123	 0	 2.336164	 -0.107307	 1.014514	 0.403693	 0.321064	 0.540352	 0.098097	 0.232518	 0.289003	 0.923466	 1
1495573448.133	 0	 2.150791	 -0.672099	 1.093198	 0.398115	 0.345185	 0.541682	 0.110090	 0.232746	 0.291084	 0.921401	 1
1495573448.143	 0	 2.023081	 -1.126361	 1.185300	 0.386806	 0.368274	 0.544761	 0.122228	 0.230324	 0.293440	 0.919730	 1
1495573448.153	 0	 1.925121	 -1.541246	 1.295146	 0.370954	 0.390878	 0.549540	 0.134623	 0.225905	 0.296065	 0.918253	 1
1495573448.163	 0	 1.668393	 -1.848979	 1.508092	 0.350056	 0.412045	 0.557542	 0.146762	 0.219304	 0.299487	 0.916883	 1
1495573448.173	 0	 1.466649	 -1.794798	 1.630627	 0.327491	 0.431367	 0.568572	 0.158016	 0.212069	 0.303796	 0.915295	 1
1495573448.183	 0	 1.539337	 -1.540689	 1.660851	 0.306399	 0.450589	 0.580702	 0.168952	 0.205725	 0.308449	 0.913232	 1
1495573448.193	 0	 1.840870	 -1.097899	 1.471177	 0.289567	 0.471685	 0.591233	 0.180319	 0.201560	 0.312551	 0.910588	 1
1495573448.203	 0	 2.142827	 -0.589896	 1.154027	 0.279539	 0.494762	 0.597930	 0.191939	 0.200499	 0.315380	 0.907466	 1
1495573448.213	 0	 2.363254	 -0.414028	 0.921100	 0.273508	 0.519408	 0.601379	 0.203959	 0.201192	 0.317012	 0.904116	 1
1495573448.223	 0	 2.496045	 -0.325693	 0.788191	 0.269339	 0.545092	 0.602808	 0.216336	 0.202665	 0.317828	 0.900617	 1
1495573448.233	 0	 2.319617	 -0.347506	 0.824409	 0.265266	 0.569995	 0.604377	 0.228288	 0.204099	 0.318594	 0.897065	 1
1495573448.243	 0	 1.927777	 -0.320512	 1.162613	 0.258566	 0.592082	 0.610380	 0.238879	 0.204544	 0.320878	 0.893384	 1
1495573448.253	 0	 1.564855	 -0.237777	 1.400100	 0.249935	 0.611275	 0.621217	 0.247938	 0.204428	 0.324911	 0.889477	 1
1495573448.263	 0	 1.329352	 -0.213001	 1.383129	 0.240785	 0.627897	 0.633524	 0.255746	 0.204046	 0.329366	 0.885707	 1
1495573448.273	 0	 1.116559	 -0.428907	 1.294911	 0.229736	 0.642175	 0.645999	 0.262785	 0.202649	 0.333507	 0.882412	 1
1495573448.283	 0	 1.056972	 -0.765671	 1.122637	 0.216306	 0.654919	 0.657261	 0.269661	 0.199938	 0.336672	 0.879750	 1
1495573448.293	 0	 1.247986	 -1.241723	 0.832386	 0.200165	 0.668344	 0.665259	 0.277637	 0.195776	 0.337898	 0.877733	 1
1495573448.303	 0	 1.392363	 -1.406066	 0.569230	 0.183503	 0.682763	 0.669820	 0.286481	 0.191116	 0.337384	 0.876114	 1
1495573448.313	 0	 1.502676	 -0.918618	 0.513788	 0.170786	 0.697972	 0.672831	 0.295144	 0.188122	 0.336606	 0.874184	 1
1495573448.323	 0	 1.684563	 -0.179116	 0.890477	 0.163193	 0.715158	 0.679192	 0.303488	 0.188192	 0.337896	 0.870807	 1
1495573448.333	 0	 2.048509	 0.279364	 1.647372	 0.155203	 0.736347	 0.693952	 0.312849	 0.190040	 0.342551	 0.865257	 1
1495573448.343	 0	 2.675696	 0.547018	 2.391554	 0.143242	 0.764159	 0.718582	 0.324801	 0.192922	 0.350398	 0.857034	 1
1495573448.353	 0	 3.271053	 0.748101	 2.809782	 0.127667	 0.798530	 0.750425	 0.339421	 0.196856	 0.360031	 0.846415	 1
1495573448.363	 0	 3.630406	 0.932670	 2.852420	 0.111302	 0.836790	 0.785161	 0.355360	 0.202155	 0.369913	 0.834276	 1
1495573448.373	 0	 3.696070	 0.851378	 2.782285	 0.092667	 0.875978	 0.821466	 0.371680	 0.207617	 0.379214	 0.821551	 1
1495573448.383	 0	 3.495898	 0.624900	 2.708969	 0.069421	 0.913250	 0.859938	 0.387563	 0.211997	 0.387819	 0.808980	 1
1495573448.393	 0	 3.210411	 0.400693	 2.634163	 0.041394	 0.947116	 0.900534	 0.402498	 0.215018	 0.395727	 0.796971	 1
1495573448.403	 0	 2.920830	 0.332825	 2.570874	 0.009016	 0.977378	 0.944068	 0.416316	 0.217010	 0.403357	 0.785424	 1
1495573448.413	 0	 2.689640	 0.364475	 2.451389	 -0.025358	 1.004274	 0.989238	 0.428857	 0.218671	 0.410694	 0.774335	 1
1495573448.423	 0	 2.611563	 0.542944	 2.402924	 -0.060759	 1.029165	 1.036613	 0.440431	 0.220746	 0.418068	 0.763224	 1
1495573448.433	 0	 2.602706	 0.724020	 2.464962	 -0.098638	 1.052930	 1.088292	 0.451450	 0.223344	 0.425849	 0.751640	 1
1495573448.443	 0	 2.593539	 0.944105	 2.662167	 -0.141551	 1.075338	 1.147392	 0.462031	 0.226246	 0.434577	 0.739245	 1
1495573448.453	 0	 2.602940	 1.117660	 2.910211	 -0.191640	 1.096010	 1.216078	 0.472299	 0.229225	 0.444459	 0.725841	 1
1495573448.463	 0	 2.640188	 1.082546	 3.110945	 -0.250967	 1.114752	 1.294739	 0.482676	 0.231781	 0.454978	 0.711545	 1
1495573448.473	 0	 2.680182	 0.789605	 3.209116	 -0.320900	 1.131201	 1.381881	 0.493658	 0.233190	 0.465126	 0.696837	 1
1495573448.483	 0	 2.783089	 0.494953	 3.209250	 -0.400323	 1.145383	 1.475503	 0.505386	 0.233562	 0.474290	 0.681970	 1
1495573448.493	 0	 2.976128	 0.388198	 3.190780	 -0.485435	 1.157269	 1.573541	 0.517329	 0.233798	 0.482620	 0.666924	 1
1495573448.503	 0	 3.178945	 0.533539	 3.202183	 -0.580087	 1.167888	 1.681808	 0.530077	 0.234609	 0.490650	 0.650569	 1
1495573448.513	 0	 3.363265	 0.994070	 3.302872	 -0.679468	 1.175371	 1.798870	 0.542317	 0.236785	 0.499439	 0.632760	 1
1495573448.523	 0	 3.437504	 1.562922	 3.542209	 -0.781333	 1.177714	 1.924498	 0.553412	 0.240337	 0.509973	 0.613108	 1
1495573448.533	 0	 3.341978	 1.730480	 3.825972	 -0.883467	 1.172680	 2.053610	 0.563581	 0.243698	 0.521892	 0.592128	 1
1495573448.543	 0	 3.095821	 1.460540	 3.954988	 -0.981171	 1.160044	 2.176505	 0.573406	 0.245338	 0.533737	 0.571087	 1
1495573448.553	 0	 2.807317	 1.085144	 3.836622	 -1.068838	 1.141998	 2.285192	 0.582979	 0.245174	 0.544367	 0.551080	 1
1495573448.563	 0	 2.546050	 0.813146	 3.583906	 -1.143697	 1.121266	 2.377403	 0.592006	 0.243983	 0.553521	 0.532555	 1
1495573448.573	 0	 2.447824	 0.829306	 3.396516	 -1.207481	 1.099257	 2.457424	 0.600312	 0.242712	 0.561817	 0.514857	 1
1495573448.583	 0	 2.425758	 1.163818	 3.324605	 -1.260860	 1.076034	 2.529713	 0.607378	 0.242244	 0.570464	 0.496971	 1
1495573448.593	 0	 2.402477	 1.517042	 3.369436	 -1.304760	 1.050976	 2.596123	 0.613135	 0.242423	 0.579988	 0.478446	 1
1495573448.603	 0	 2.354237	 1.809874	 3.443326	 -1.340103	 1.023888	 2.657179	 0.617694	 0.242896	 0.590391	 0.459231	 1
1495573448.613	 0	 2.171258	 1.787085	 3.493395	 -1.368098	 0.994953	 2.711511	 0.621469	 0.242826	 0.601043	 0.439954	 1
1495573448.623	 0	 1.867765	 1.332482	 3.465910	 -1.391535	 0.964832	 2.757222	 0.625385	 0.241075	 0.610649	 0.421763	 1
1495573448.633	 0	 1.543834	 0.623142	 3.310123	 -1.413489	 0.934768	 2.793989	 0.630235	 0.237225	 0.618096	 0.405568	 1
1495573448.643	 0	 1.292062	 0.122401	 3.026859	 -1.434556	 0.906388	 2.823237	 0.635809	 0.232109	 0.623340	 0.391561	 1
1495573448.653	 0	 1.099074	 -0.067791	 2.787265	 -1.453288	 0.879963	 2.846851	 0.641319	 0.226625	 0.627344	 0.379197	 1
1495573448.663	 0	 0.979805	 -0.135261	 2.657531	 -1.469592	 0.854642	 2.866550	 0.646543	 0.220949	 0.630784	 0.367797	 1
1495573448.673	 0	 0.965783	 -0.028227	 2.591425	 -1.483622	 0.829887	 2.884506	 0.651288	 0.215502	 0.634202	 0.356610	 1
1495573448.683	 0	 0.893402	 0.193674	 2.516799	 -1.494154	 0.805611	 2.900745	 0.655137	 0.210423	 0.638071	 0.345519	 1
1495573448.693	 0	 0.730629	 0.366649	 2.407958	 -1.500424	 0.782139	 2.914177	 0.657888	 0.205530	 0.642459	 0.334943	 1
1495573448.703	 0	 0.564810	 0.358656	 2.253054	 -1.504026	 0.759896	 2.924625	 0.659990	 0.200575	 0.646815	 0.325290	 1
1495573448.713	 0	 0.428884	 0.157996	 2.061736	 -1.507380	 0.739363	 2.932721	 0.662090	 0.195507	 0.650427	 0.316793	 1
1495573448.723	 0	 0.293682	 -0.113784	 1.889861	 -1.511768	 0.720521	 2.938623	 0.664584	 0.190164	 0.652952	 0.309547	 1
1495573448.733	 0	 0.152683	 -0.329985	 1.771017	 -1.517061	 0.702862	 2.942390	 0.667460	 0.184411	 0.654561	 0.303380	 1
1495573448.743	 0	 0.069424	 -0.320774	 1.678759	 -1.521796	 0.686140	 2.944592	 0.670198	 0.178570	 0.655898	 0.297904	 1
1495573448.753	 0	 0.058378	 -0.144467	 1.645587	 -1.524865	 0.669833	 2.946344	 0.672369	 0.172984	 0.657598	 0.292509	 1
1495573448.763	 0	 0.029816	 0.120941	 1.570656	 -1.525175	 0.654103	 2.947744	 0.673586	 0.167885	 0.660035	 0.287140	 1
1495573448.773	 0	 -0.009041	 0.252103	 1.437369	 -1.523402	 0.639520	 2.948602	 0.674038	 0.163294	 0.662884	 0.282120	 1
1495573448.783	 0	 -0.027062	 0.205234	 1.219696	 -1.521435	 0.626876	 2.949068	 0.674280	 0.159267	 0.665430	 0.277819	 1
1495573448.793	 0	 -0.049703	 0.100549	 0.925392	 -1.520240	 0.616940	 2.949155	 0.674589	 0.155949	 0.667254	 0.274557	 1
1495573448.803	 0	 -0.062456	 0.016982	 0.607881	 -1.519705	 0.610143	 2.948845	 0.674913	 0.153512	 0.668347	 0.272469	 1
1495573448.813	 0	 -0.059623	 -0.053634	 0.331233	 -1.519796	 0.606189	 2.948357	 0.675254	 0.151935	 0.668802	 0.271387	 1
1495573448.823	 0	 -0.063949	 -0.119593	 0.126226	 -1.520460	 0.604450	 2.947727	 0.675644	 0.151016	 0.668735	 0.271097	 1
1495573448.833	 0	 -0.064897	 -0.214899	 -0.001088	 -1.521868	 0.604151	 2.946949	 0.676193	 0.150456	 0.668195	 0.271369	 1
1495573448.843	 0	 -0.042684	 -0.281361	 -0.094788	 -1.524241	 0.604842	 2.946322	 0.676985	 0.150166	 0.667211	 0.271976	 1
1495573448.853	 0	 -0.035573	 -0.182776	 -0.143783	 -1.525997	 0.606164	 2.945780	 0.677521	 0.150211	 0.666358	 0.272708	 1
1495573448.863	 0	 -0.019392	 -0.065848	 -0.140126	 -1.526731	 0.607563	 2.945444	 0.677693	 0.150492	 0.665868	 0.273319	 1
1495573448.873	 0	 -0.045115	 0.033221	 -0.111253	 -1.526340	 0.608712	 2.944948	 0.677521	 0.150783	 0.665772	 0.273820	 1
1495573448.883	 0	 -0.098617	 0.046171	 -0.093203	 -1.525217	 0.609636	 2.943875	 0.677164	 0.150900	 0.665876	 0.274386	 1
1495573448.893	 0	 -0.160681	 -0.003629	 -0.083451	 -1.524082	 0.610408	 2.942078	 0.676869	 0.150720	 0.665904	 0.275143	 1
1495573448.903	 0	 -0.239797	 -0.032126	 -0.071389	 -1.522809	 0.611046	 2.939395	 0.676603	 0.150213	 0.665875	 0.276143	 1
1495573448.913	 0	 -0.310679	 -0.028561	 -0.025752	 -1.521067	 0.611284	 2.935819	 0.676274	 0.149329	 0.665936	 0.277278	 1
1495573448.923	 0	 -0.327179	 -0.028184	 0.019015	 -1.526021	 0.617581	 2.935883	 0.677485	 0.150889	 0.663370	 0.279618	 1
1495573448.933	 0	 -0.297561	 -0.070674	 0.034684	 -1.524450	 0.617126	 2.932199	 0.677272	 0.149700	 0.663451	 0.280578	 1
1495573448.943	 0	 -0.279676	 -0.139745	 0.045690	 -1.523686	 0.616578	 2.928798	 0.677310	 0.148462	 0.663311	 0.281477	 1
1495573448.953	 0	 -0.293992	 -0.192689	 0.074872	 -1.523598	 0.618996	 2.925425	 0.677368	 0.148188	 0.662515	 0.283350	 1
1495573448.963	 0	 -0.325306	 -0.241387	 0.101904	 -1.523672	 0.617897	 2.921615	 0.677746	 0.146498	 0.662109	 0.284271	 1
1495573448.973	 0	 -0.303079	 -0.214737	 0.122658	 -1.523747	 0.616578	 2.917875	 0.678130	 0.144752	 0.661743	 0.285100	 1
1495573448.983	 0	 -0.191103	 -0.139374	 0.138069	 -1.523810	 0.615151	 2.915245	 0.678434	 0.143345	 0.661555	 0.285526	 1
1495573448.993	 0	 -0.041747	 -0.075843	 0.150364	 -1.521637	 0.608572	 2.912906	 0.678302	 0.140528	 0.662917	 0.284077	 1
1495573449.003	 0	 0.076651	 -0.027105	 0.159068	 -1.522415	 0.607049	 2.913606	 0.678607	 0.140114	 0.662973	 0.283420	 1
1495573449.013	 0	 0.119436	 -0.021938	 0.154055	 -1.522623	 0.599993	 2.914593	 0.679049	 0.137915	 0.664060	 0.280885	 1
1495573449.023	 0	 0.093187	 -0.059347	 0.108561	 -1.523867	 0.598842	 2.915916	 0.679442	 0.137781	 0.663988	 0.280168	 1
1495573449.033	 0	 0.026566	 -0.075461	 0.058877	 -1.527671	 0.593451	 2.918032	 0.680895	 0.136058	 0.663758	 0.278021	 1
1495573449.043	 0	 -0.062602	 -0.044684	 0.021370	 -1.527961	 0.593128	 2.917573	 0.681043	 0.135747	 0.663641	 0.278091	 1
1495573449.053	 0	 -0.127065	 0.010496	 -0.018890	 -1.532022	 0.589552	 2.918889	 0.682522	 0.134365	 0.662945	 0.276793	 1
1495573449.063	 0	 -0.145774	 0.047522	 -0.058086	 -1.530652	 0.589975	 2.917157	 0.682157	 0.134114	 0.663113	 0.277410	 1
1495573449.073	 0	 -0.110145	 0.038750	 -0.095402	 -1.532351	 0.588035	 2.917312	 0.682829	 0.133245	 0.662828	 0.276856	 1
1495573449.083	 0	 -0.058768	 0.030056	 -0.113411	 -1.531518	 0.589102	 2.916404	 0.682549	 0.133428	 0.662836	 0.277440	 1
1495573449.093	 0	 -0.003371	 0.038505	 -0.105533	 -1.531046	 0.590182	 2.916154	 0.682342	 0.133791	 0.662810	 0.277835	 1
1495573449.103	 0	 0.038909	 0.060973	 -0.065482	 -1.530660	 0.590963	 2.916467	 0.682146	 0.134228	 0.662874	 0.277953	 1
1495573449.113	 0	 0.067220	 0.043096	 -0.022800	 -1.532078	 0.592183	 2.918028	 0.682435	 0.134995	 0.662435	 0.277919	 1
1495573449.123	 0	 0.069033	 -0.008884	 -0.002049	 -1.532487	 0.592260	 2.918868	 0.682509	 0.135252	 0.662401	 0.277693	 1
1495573449.133	 0	 0.036035	 -0.055681	 -0.016693	 -1.533242	 0.592387	 2.919413	 0.682714	 0.135378	 0.662201	 0.277604	 1
1495573449.143	 0	 0.005369	 -0.094069	 -0.048326	 -1.534175	 0.592790	 2.919560	 0.682988	 0.135441	 0.661846	 0.277746	 1
1495573449.153	 0	 -0.013443	 -0.114431	 -0.086087	 -1.537654	 0.593192	 2.920788	 0.684030	 0.135520	 0.660771	 0.277704	 1
1495573449.163	 0	 -0.040886	 -0.093249	 -0.109489	 -1.538405	 0.594233	 2.920341	 0.684242	 0.135630	 0.660305	 0.278234	 1
1495573449.173	 0	 -0.082452	 -0.049565	 -0.104896	 -1.538494	 0.595268	 2.919437	 0.684267	 0.135673	 0.660002	 0.278869	 1
1495573449.183	 0	 -0.116744	 -0.043038	 -0.088962	 -1.538153	 0.596149	 2.918090	 0.684191	 0.135570	 0.659806	 0.279571	 1
1495573449.193	 0	 -0.124358	 -0.054660	 -0.078462	 -1.537034	 0.597809	 2.916135	 0.683849	 0.135644	 0.659679	 0.280668	 1
1495573449.203	 0	 -0.087282	 -0.082261	 -0.059363	 -1.537115	 0.598421	 2.914945	 0.683918	 0.135442	 0.659397	 0.281261	 1
1495573449.213	 0	 -0.048204	 -0.080004	 -0.022785	 -1.537534	 0.598734	 2.914247	 0.684084	 0.135254	 0.659110	 0.281619	 1
1495573449.223	 0	 -0.035857	 -0.070218	 0.021229	 -1.537983	 0.598618	 2.913792	 0.684270	 0.134994	 0.658909	 0.281762	 1
1495573449.233	 0	 -0.056338	 -0.068989	 0.044666	 -1.541192	 0.596531	 2.914823	 0.685388	 0.134160	 0.658253	 0.280974	 1
1495573449.243	 0	 -0.110509	 -0.083907	 0.020681	 -1.541346	 0.596207	 2.913703	 0.685534	 0.133641	 0.658089	 0.281250	 1
1495573449.253	 0	 -0.218565	 -0.127721	 -0.056323	 -1.541229	 0.596490	 2.911453	 0.685628	 0.132986	 0.657772	 0.282072	 1
1495573449.263	 0	 -0.382733	 -0.174843	 -0.173216	 -1.540508	 0.597786	 2.907340	 0.685583	 0.132135	 0.657252	 0.283789	 1
1495573449.273	 0	 -0.567915	 -0.275282	 -0.325051	 -1.541696	 0.596899	 2.902294	 0.686358	 0.129922	 0.656254	 0.285242	 1
1495573449.283	 0	 -0.756139	 -0.410923	 -0.501949	 -1.540518	 0.601217	 2.893643	 0.686271	 0.128646	 0.654787	 0.289372	 1
1495573449.293	 0	 -0.970908	 -0.543387	 -0.689638	 -1.539221	 0.607284	 2.882422	 0.686204	 0.127127	 0.652696	 0.294875	 1
1495573449.303	 0	 -1.254815	 -0.625815	 -0.886699	 -1.536862	 0.615180	 2.867841	 0.685897	 0.125269	 0.650135	 0.301957	 1
1495573449.313	 0	 -1.584755	 -0.726166	 -1.071393	 -1.532901	 0.624775	 2.849180	 0.685227	 0.122877	 0.647145	 0.310755	 1
1495573449.323	 0	 -1.919793	 -0.908562	 -1.292398	 -1.527770	 0.636235	 2.826086	 0.684352	 0.119852	 0.643413	 0.321431	 1
1495573449.333	 0	 -2.224507	 -1.142322	 -1.565184	 -1.522068	 0.650015	 2.798689	 0.683432	 0.116327	 0.638580	 0.334071	 1
1495573449.343	 0	 -2.483026	 -1.311422	 -1.857244	 -1.515499	 0.666400	 2.767300	 0.682350	 0.112589	 0.632625	 0.348581	 1
1495573449.353	 0	 -2.684369	 -1.281968	 -2.174361	 -1.506525	 0.685490	 2.732333	 0.680612	 0.109126	 0.625985	 0.364694	 1
1495573449.363	 0	 -2.847799	 -1.091134	 -2.517093	 -1.493235	 0.707523	 2.694022	 0.677647	 0.106547	 0.619156	 0.382216	 1
1495573449.373	 0	 -3.021121	 -0.968237	 -2.844675	 -1.475241	 0.732224	 2.651875	 0.673453	 0.104805	 0.612047	 0.401093	 1
1495573449.383	 0	 -3.223775	 -1.000372	 -3.149727	 -1.453188	 0.759123	 2.605037	 0.668381	 0.103469	 0.604165	 0.421361	 1
1495573449.393	 0	 -3.441354	 -1.105908	 -3.468585	 -1.427151	 0.787981	 2.552512	 0.662617	 0.102267	 0.595098	 0.443102	 1
1495573449.403	 0	 -3.649164	 -1.232828	 -3.806896	 -1.396539	 0.818714	 2.493521	 0.656150	 0.101218	 0.584630	 0.466294	 1
1495573449.413	 0	 -3.835951	 -1.411768	 -4.125424	 -1.360940	 0.850861	 2.427291	 0.649064	 0.100198	 0.572535	 0.490795	 1
1495573449.423	 0	 -3.997396	 -1.553379	 -4.413429	 -1.319485	 0.883743	 2.353175	 0.641327	 0.099181	 0.558808	 0.516329	 1
1495573449.433	 0	 -4.131169	 -1.599239	 -4.678734	 -1.270374	 0.916639	 2.270385	 0.632685	 0.098368	 0.543704	 0.542604	 1
1495573449.443	 0	 -4.237390	 -1.602494	 -4.919854	 -1.212043	 0.948669	 2.178084	 0.622983	 0.097902	 0.527415	 0.569333	 1
1495573449.453	 0	 -4.333350	 -1.641737	 -5.129292	 -1.143712	 0.978794	 2.075313	 0.612281	 0.097670	 0.509884	 0.596314	 1
1495573449.463	 0	 -4.428712	 -1.738205	 -5.305221	 -1.065193	 1.005746	 1.961337	 0.600703	 0.097392	 0.490996	 0.623373	 1
1495573449.473	 0	 -4.505617	 -1.918389	 -5.426493	 -0.977239	 1.028134	 1.836253	 0.588411	 0.096712	 0.470652	 0.650312	 1
1495573449.483	 0	 -4.533526	 -2.065094	 -5.435922	 -0.882226	 1.044524	 1.702442	 0.575594	 0.095385	 0.449066	 0.676708	 1
1495573449.493	 0	 -4.484074	 -1.981292	 -5.258252	 -0.783248	 1.053448	 1.565350	 0.562124	 0.093709	 0.427399	 0.701830	 1
1495573449.503	 0	 -4.300929	 -1.753716	 -4.989389	 -0.684930	 1.054992	 1.431638	 0.548181	 0.092203	 0.406558	 0.725056	 1
1495573449.513	 0	 -4.012176	 -1.386937	 -4.696883	 -0.590781	 1.050618	 1.306384	 0.534064	 0.091546	 0.387076	 0.746034	 1
1495573449.523	 0	 -3.707827	 -1.008274	 -4.364597	 -0.502985	 1.041537	 1.192429	 0.519962	 0.091973	 0.369303	 0.764720	 1
1495573449.533	 0	 -3.415887	 -0.753743	 -3.991139	 -0.424116	 1.028760	 1.091392	 0.506223	 0.093007	 0.353218	 0.781233	 1
1495573449.543	 0	 -3.211065	 -0.630118	 -3.673195	 -0.354640	 1.013033	 1.002399	 0.492906	 0.094168	 0.338512	 0.795981	 1
1495573449.553	 0	 -3.132277	 -0.723801	 -3.477237	 -0.294073	 0.994634	 0.922544	 0.479909	 0.094743	 0.324362	 0.809630	 1
1495573449.563	 0	 -3.200746	 -0.985861	 -3.404914	 -0.241560	 0.973250	 0.848674	 0.466914	 0.094080	 0.309924	 0.822853	 1
1495573449.573	 0	 -3.333469	 -1.309939	 -3.419209	 -0.196392	 0.948711	 0.778773	 0.453645	 0.091877	 0.294651	 0.836030	 1
1495573449.583	 0	 -3.498972	 -1.510670	 -3.438577	 -0.157532	 0.921043	 0.712321	 0.439811	 0.088414	 0.278611	 0.849191	 1
1495573449.593	 0	 -3.680686	 -1.381398	 -3.380223	 -0.122799	 0.890136	 0.650186	 0.424890	 0.084765	 0.262705	 0.862131	 1
1495573449.603	 0	 -3.792453	 -1.096119	 -3.152826	 -0.091819	 0.856428	 0.594656	 0.408840	 0.081608	 0.248012	 0.874460	 1
1495573449.614	 0	 -3.714623	 -0.716856	 -2.784311	 -0.065021	 0.821738	 0.547765	 0.392376	 0.079282	 0.235331	 0.885649	 1
1495573449.624	 0	 -3.511796	 -0.357591	 -2.338416	 -0.042234	 0.787800	 0.510139	 0.376212	 0.077947	 0.225096	 0.895388	 1
1495573449.633	 0	 -3.257879	 -0.184055	 -2.014257	 -0.023255	 0.755614	 0.479864	 0.360860	 0.077157	 0.216696	 0.903808	 1
1495573449.644	 0	 -3.042821	 -0.115584	 -1.864765	 -0.007030	 0.725354	 0.453913	 0.346418	 0.076627	 0.209160	 0.911249	 1
1495573449.654	 0	 -2.958917	 -0.155984	 -1.838094	 0.007266	 0.695944	 0.429916	 0.332413	 0.076072	 0.201731	 0.918161	 1
1495573449.664	 0	 -2.966292	 -0.326272	 -1.876567	 0.019141	 0.666405	 0.406688	 0.318491	 0.074905	 0.193895	 0.924855	 1
1495573449.674	 0	 -2.977969	 -0.523136	 -1.916458	 0.028302	 0.636509	 0.383830	 0.304570	 0.072871	 0.185489	 0.931408	 1
1495573449.684	 0	 -2.891092	 -0.718782	 -1.895951	 0.034538	 0.607021	 0.361785	 0.290987	 0.069972	 0.176736	 0.937654	 1
1495573449.694	 0	 -2.656564	 -0.829251	 -1.803070	 0.038030	 0.579450	 0.341141	 0.278399	 0.066442	 0.167994	 0.943323	 1
1495573449.704	 0	 -2.322155	 -0.698152	 -1.631871	 0.040611	 0.554972	 0.322553	 0.267192	 0.063254	 0.159894	 0.948178	 1
1495573449.714	 0	 -1.916354	 -0.404338	 -1.425163	 0.044171	 0.534397	 0.306521	 0.257620	 0.061348	 0.152971	 0.952086	 1
1495573449.724	 0	 -1.569337	 -0.166236	 -1.316724	 0.049285	 0.517518	 0.292114	 0.249613	 0.060796	 0.146888	 0.955207	 1
1495573449.734	 0	 -1.381091	 -0.135430	 -1.259768	 0.054593	 0.502835	 0.278533	 0.242607	 0.060701	 0.141127	 0.957883	 1
1495573449.744	 0	 -1.317871	 -0.238361	 -1.205111	 0.058684	 0.489041	 0.265711	 0.236084	 0.060269	 0.135509	 0.960349	 1
1495573449.754	 0	 -1.301398	 -0.451970	 -1.187333	 0.060504	 0.475456	 0.253339	 0.229788	 0.058898	 0.129788	 0.962748	 1
1495573449.764	 0	 -1.234461	 -0.697759	 -1.206030	 0.059889	 0.462315	 0.240860	 0.223842	 0.056444	 0.123701	 0.965094	 1
1495573449.774	 0	 -1.063134	 -0.622307	 -1.155030	 0.058708	 0.450721	 0.228764	 0.218637	 0.053914	 0.117715	 0.967179	 1
1495573449.784	 0	 -0.922861	 -0.695190	 -1.218255	 0.057555	 0.440592	 0.216258	 0.214122	 0.051487	 0.111517	 0.969053	 1
1495573449.794	 0	 -0.842688	 -0.750754	 -1.244170	 0.055615	 0.431413	 0.203257	 0.210096	 0.048726	 0.104985	 0.970806	 1
1495573449.804	 0	 -0.764461	 -0.646797	 -1.259587	 0.054390	 0.422960	 0.190114	 0.206359	 0.046382	 0.098447	 0.972406	 1
1495573449.814	 0	 -0.640714	 -0.569345	 -1.247296	 0.053931	 0.415630	 0.176932	 0.203110	 0.044501	 0.091959	 0.973812	 1
1495573449.824	 0	 -0.447592	 -0.478727	 -1.137200	 0.053932	 0.410057	 0.164612	 0.200662	 0.043041	 0.085933	 0.974935	 1
1495573449.834	 0	 -0.124864	 -0.424202	 -0.586445	 0.052873	 0.407504	 0.156354	 0.199635	 0.041605	 0.081787	 0.975564	 1
1495573449.844	 0	 0.216651	 -0.250889	 -0.274655	 0.051229	 0.408717	 0.152768	 0.200367	 0.040487	 0.079880	 0.975619	 1
1495573449.854	 0	 0.398280	 -0.062996	 -0.070425	 0.050830	 0.412242	 0.151279	 0.202134	 0.040264	 0.079130	 0.975325	 1
1495573449.864	 0	 0.393276	 0.091681	 0.025516	 0.051409	 0.416267	 0.151229	 0.204076	 0.040679	 0.079183	 0.974899	 1
1495573449.874	 0	 0.153909	 0.044965	 -0.041525	 0.052249	 0.418529	 0.150901	 0.205153	 0.041133	 0.079121	 0.974659	 1
1495573449.884	 0	 -0.255038	 -0.080745	 -0.223740	 0.052414	 0.417000	 0.149113	 0.204437	 0.040978	 0.078258	 0.974886	 1
1495573449.894	 0	 -0.707849	 -0.164812	 -0.386433	 0.052417	 0.410904	 0.145667	 0.201532	 0.040427	 0.076546	 0.975649	 1
1495573449.904	 0	 -0.984968	 -0.294246	 -0.429032	 0.051406	 0.401504	 0.141592	 0.197060	 0.039222	 0.074406	 0.976777	 1
1495573449.914	 0	 -1.073271	 -0.323457	 -0.356096	 0.049558	 0.390821	 0.138103	 0.191970	 0.037640	 0.072462	 0.977998	 1
1495573449.924	 0	 -0.962277	 -0.265681	 -0.252180	 0.047628	 0.380826	 0.135648	 0.187191	 0.036151	 0.071024	 0.979085	 1
1495573449.934	 0	 -0.681748	 -0.120919	 -0.127064	 0.046508	 0.373229	 0.134328	 0.183531	 0.035245	 0.070235	 0.979868	 1
1495573449.944	 0	 -0.336140	 0.098207	 0.009997	 0.046941	 0.369041	 0.134290	 0.181463	 0.035325	 0.070234	 0.980250	 1
1495573449.954	 0	 -0.079462	 0.258625	 0.074248	 0.048897	 0.367745	 0.135058	 0.180745	 0.036313	 0.070780	 0.980308	 1
1495573449.964	 0	 0.017005	 0.312484	 0.040140	 0.051748	 0.367795	 0.135610	 0.180658	 0.037762	 0.071308	 0.980230	 1
1495573449.974	 0	 -0.022686	 0.255728	 -0.048422	 0.054541	 0.367724	 0.135347	 0.180529	 0.039105	 0.071431	 0.980193	 1
1495573449.984	 0	 -0.126776	 0.178009	 -0.103372	 0.056837	 0.366678	 0.134425	 0.179952	 0.040115	 0.071178	 0.980276	 1
1495573449.994	 0	 -0.215399	 0.103727	 -0.107957	 0.058412	 0.364669	 0.133390	 0.178932	 0.040733	 0.070796	 0.980465	 1
1495573450.004	 0	 -0.224065	 0.099553	 -0.096295	 0.059664	 0.362367	 0.132475	 0.177777	 0.041196	 0.070439	 0.980682	 1
1495573450.014	 0	 -0.168668	 0.166528	 -0.078078	 0.061392	 0.360499	 0.131708	 0.176815	 0.041921	 0.070200	 0.980842	 1
1495573450.024	 0	 -0.109033	 0.236701	 -0.056593	 0.063770	 0.359260	 0.131155	 0.176135	 0.043002	 0.070127	 0.980923	 1
1495573450.034	 0	 -0.069494	 0.253619	 -0.060453	 0.066472	 0.358447	 0.130605	 0.175654	 0.044255	 0.070087	 0.980956	 1
1495573450.044	 0	 -0.019260	 0.228982	 -0.078669	 0.069065	 0.358081	 0.129850	 0.175400	 0.045449	 0.069940	 0.980957	 1
1495573450.054	 0	 0.050968	 0.205534	 -0.066828	 0.071439	 0.358340	 0.129072	 0.175462	 0.046553	 0.069769	 0.980907	 1
1495573450.064	 0	 0.109329	 0.176856	 -0.043355	 0.073496	 0.359253	 0.128480	 0.175853	 0.047536	 0.069671	 0.980797	 1
1495573450.074	 0	 0.140040	 0.142864	 -0.028644	 0.075130	 0.360543	 0.128046	 0.176439	 0.048335	 0.069618	 0.980656	 1
1495573450.084	 0	 0.157030	 0.125847	 -0.024488	 0.076541	 0.362042	 0.127665	 0.177135	 0.049035	 0.069575	 0.980499	 1
1495573450.094	 0	 0.161345	 0.142833	 -0.027468	 0.077384	 0.362325	 0.127492	 0.177249	 0.049441	 0.069569	 0.980458	 1
1495573450.104	 0	 0.181731	 0.198069	 -0.028821	 0.079347	 0.364025	 0.127035	 0.178026	 0.050410	 0.069542	 0.980270	 1
1495573450.114	 0	 0.218085	 0.282022	 -0.022255	 0.082078	 0.366060	 0.126597	 0.178941	 0.051765	 0.069600	 0.980029	 1
1495573450.124	 0	 0.316244	 0.418037	 -0.000829	 0.085877	 0.368792	 0.126271	 0.180157	 0.053671	 0.069822	 0.979688	 1
1495573450.134	 0	 0.363721	 0.448014	 0.053238	 0.090336	 0.372567	 0.126305	 0.181850	 0.055960	 0.070302	 0.979212	 1
1495573450.144	 0	 0.234432	 0.298322	 0.047512	 0.093937	 0.374963	 0.126553	 0.182890	 0.057809	 0.070791	 0.978876	 1
1495573450.154	 0	 -0.024523	 -0.008863	 -0.029241	 0.094631	 0.375411	 0.126426	 0.183089	 0.058149	 0.070800	 0.978818	 1
1495573450.164	 0	 -0.247273	 -0.200096	 -0.079795	 0.093233	 0.373409	 0.125859	 0.182173	 0.057360	 0.070361	 0.979067	 1
1495573450.174	 0	 -0.365877	 -0.261498	 -0.071551	 0.090894	 0.369979	 0.125393	 0.180587	 0.056081	 0.069863	 0.979470	 1
1495573450.184	 0	 -0.388401	 -0.220956	 -0.053005	 0.089224	 0.365583	 0.124940	 0.178503	 0.055106	 0.069419	 0.979939	 1
1495573450.194	 0	 -0.292624	 -0.125255	 -0.017125	 0.086870	 0.360950	 0.125256	 0.176303	 0.053856	 0.069291	 0.980416	 1
