% Gyrometer data recorded with 'snsrlog'
% 
% 
% Label description:
% 	 0: Default Label
% 	 1: pick up phone
% 
% Column description:
% 	 1: Seconds.milliseconds since 1970
% 	 2: Number of skipped measurements
% 	 3: Gyro X
% 	 4: Gyro Y
% 	 5: Gyro Z
% 	 6: Roll of the device
% 	 7: Pitch of the device
% 	 8: Yaw of the device
% 	 9: Quaternion X
% 	 10: Quaternion Y
% 	 11: Quaternion Z
% 	 12: Quaternion W
% 	 13: Label used for the current sample
% 
% 
1495573455.537	 0	 0.000512	 -0.002270	 0.003097	 0.021548	 -0.011803	 0.000449	 -0.005904	 0.010772	 0.000161	 0.999925	 1
1495573455.547	 0	 0.000529	 0.000914	 0.002067	 0.021582	 -0.011828	 0.000470	 -0.005916	 0.010789	 0.000171	 0.999924	 1
1495573455.557	 0	 -0.000535	 0.001980	 0.002075	 0.021634	 -0.011791	 0.000491	 -0.005898	 0.010815	 0.000182	 0.999924	 1
1495573455.567	 0	 -0.001618	 -0.001200	 0.003099	 0.021702	 -0.011787	 0.000518	 -0.005896	 0.010849	 0.000195	 0.999924	 1
1495573455.577	 0	 -0.001613	 0.000926	 0.003125	 0.021708	 -0.011745	 0.000543	 -0.005875	 0.010852	 0.000208	 0.999924	 1
1495573455.587	 0	 0.000534	 0.000919	 0.002067	 0.021787	 -0.011657	 0.000570	 -0.005831	 0.010891	 0.000221	 0.999924	 1
1495573455.597	 0	 -0.003733	 -0.000136	 0.002032	 0.021836	 -0.011655	 0.000597	 -0.005830	 0.010916	 0.000235	 0.999923	 1
1495573455.607	 0	 0.000507	 -0.001196	 0.004179	 0.021770	 -0.011696	 0.000627	 -0.005851	 0.010883	 0.000250	 0.999924	 1
1495573455.617	 0	 -0.000529	 0.001982	 0.002075	 0.021761	 -0.011634	 0.000657	 -0.005820	 0.010878	 0.000265	 0.999924	 1
1495573455.627	 0	 0.000524	 0.000922	 0.003136	 0.021750	 -0.011643	 0.000688	 -0.005825	 0.010873	 0.000281	 0.999924	 1
1495573455.637	 0	 0.001597	 -0.000147	 0.002060	 0.021785	 -0.011701	 0.000714	 -0.005854	 0.010890	 0.000293	 0.999924	 1
1495573455.647	 0	 -0.000556	 0.000930	 0.004200	 0.021757	 -0.011678	 0.000745	 -0.005843	 0.010876	 0.000309	 0.999924	 1
1495573455.657	 0	 -0.001591	 -0.000150	 0.000974	 0.021760	 -0.011718	 0.000771	 -0.005863	 0.010877	 0.000321	 0.999924	 1
1495573455.667	 0	 -0.000550	 0.000923	 0.003131	 0.021775	 -0.011797	 0.000802	 -0.005902	 0.010885	 0.000337	 0.999923	 1
1495573455.677	 0	 0.000528	 0.000917	 0.002067	 0.021812	 -0.011786	 0.000827	 -0.005897	 0.010903	 0.000349	 0.999923	 1
1495573455.687	 0	 -0.001604	 0.001983	 0.002069	 0.021798	 -0.011809	 0.000853	 -0.005909	 0.010896	 0.000362	 0.999923	 1
1495573455.697	 0	 -0.000560	 0.000930	 0.004200	 0.021824	 -0.011768	 0.000889	 -0.005889	 0.010909	 0.000381	 0.999923	 1
1495573455.707	 0	 -0.000560	 -0.001195	 0.004174	 0.021843	 -0.011721	 0.000926	 -0.005865	 0.010918	 0.000399	 0.999923	 1
1495573455.717	 0	 -0.004811	 0.001995	 0.003121	 0.021833	 -0.011766	 0.000957	 -0.005888	 0.010913	 0.000414	 0.999923	 1
1495573455.727	 0	 -0.000542	 0.001986	 0.003144	 0.021831	 -0.011744	 0.000983	 -0.005877	 0.010912	 0.000427	 0.999923	 1
1495573455.737	 0	 -0.000545	 -0.000143	 0.003118	 0.021792	 -0.011733	 0.001008	 -0.005871	 0.010893	 0.000440	 0.999923	 1
1495573455.747	 0	 0.000519	 -0.000144	 0.003123	 0.021808	 -0.011770	 0.001034	 -0.005890	 0.010900	 0.000453	 0.999923	 1
1495573455.757	 0	 -0.000538	 -0.001212	 0.002036	 0.021798	 -0.011759	 0.001059	 -0.005885	 0.010895	 0.000466	 0.999923	 1
1495573455.767	 0	 0.000534	 0.000912	 0.002067	 0.021786	 -0.011741	 0.001090	 -0.005876	 0.010889	 0.000481	 0.999923	 1
1495573455.777	 0	 -0.002674	 0.000924	 0.003120	 0.021801	 -0.011718	 0.001121	 -0.005865	 0.010897	 0.000497	 0.999923	 1
1495573455.787	 0	 -0.000539	 -0.001215	 0.002036	 0.021776	 -0.011784	 0.001147	 -0.005898	 0.010884	 0.000509	 0.999923	 1
1495573455.797	 0	 -0.001607	 0.004108	 0.003164	 0.021785	 -0.011764	 0.001172	 -0.005888	 0.010889	 0.000522	 0.999923	 1
1495573455.807	 0	 -0.001610	 0.001982	 0.003138	 0.021802	 -0.011767	 0.001203	 -0.005889	 0.010897	 0.000537	 0.999923	 1
1495573455.817	 0	 -0.000553	 -0.000149	 0.003117	 0.021767	 -0.011831	 0.001229	 -0.005922	 0.010880	 0.000550	 0.999923	 1
1495573455.828	 0	 -0.000554	 -0.000152	 0.003117	 0.021744	 -0.011842	 0.001254	 -0.005927	 0.010868	 0.000563	 0.999923	 1
1495573455.837	 0	 -0.001610	 -0.000164	 0.002043	 0.021670	 -0.011849	 0.001279	 -0.005931	 0.010831	 0.000575	 0.999924	 1
1495573455.847	 0	 -0.002674	 0.000897	 0.002050	 0.021636	 -0.011856	 0.001309	 -0.005935	 0.010814	 0.000591	 0.999924	 1
1495573455.858	 0	 -0.004828	 -0.001221	 0.003082	 0.021626	 -0.011948	 0.001336	 -0.005981	 0.010809	 0.000603	 0.999924	 1
1495573455.868	 0	 -0.005877	 -0.003359	 0.000912	 0.021583	 -0.012021	 0.001346	 -0.006017	 0.010787	 0.000608	 0.999924	 1
1495573455.878	 0	 -0.003755	 -0.001232	 0.002018	 0.021551	 -0.012099	 0.001356	 -0.006056	 0.010771	 0.000613	 0.999923	 1
1495573455.887	 0	 -0.004776	 0.001933	 -0.002224	 0.021529	 -0.012182	 0.001345	 -0.006098	 0.010760	 0.000607	 0.999923	 1
1495573455.898	 0	 -0.002169	 -0.001536	 -0.054635	 0.021602	 -0.012861	 0.001034	 -0.006436	 0.010797	 0.000447	 0.999921	 1
1495573455.908	 0	 -0.005778	 -0.003522	 -0.229993	 0.021777	 -0.014120	 -0.000766	 -0.007055	 0.010891	 -0.000460	 0.999916	 1
1495573455.918	 0	 -0.000822	 0.000854	 -0.402021	 0.021790	 -0.014965	 -0.004376	 -0.007458	 0.010911	 -0.002269	 0.999910	 1
1495573455.928	 0	 0.004180	 0.001589	 -0.254464	 0.021323	 -0.013645	 -0.007486	 -0.006782	 0.010686	 -0.003815	 0.999913	 1
1495573455.938	 0	 0.004331	 0.008545	 0.049216	 0.021270	 -0.012239	 -0.007741	 -0.006078	 0.010658	 -0.003935	 0.999917	 1
1495573455.948	 0	 -0.000470	 -0.002855	 0.295986	 0.021325	 -0.012156	 -0.005395	 -0.006049	 0.010679	 -0.002762	 0.999921	 1
1495573455.958	 0	 -0.008180	 -0.005366	 0.417778	 0.021334	 -0.012162	 -0.001489	 -0.006072	 0.010671	 -0.000810	 0.999924	 1
1495573455.968	 0	 -0.012134	 -0.003390	 0.388919	 0.021340	 -0.012187	 0.002528	 -0.006107	 0.010662	 0.001199	 0.999924	 1
1495573455.978	 0	 -0.021732	 -0.008203	 0.279772	 0.021421	 -0.012931	 0.005586	 -0.006495	 0.010692	 0.002723	 0.999918	 1
1495573455.988	 0	 -0.028040	 -0.007719	 0.171778	 0.021355	 -0.013159	 0.007533	 -0.006619	 0.010652	 0.003696	 0.999915	 1
1495573455.998	 0	 -0.027616	 -0.007935	 0.132225	 0.021296	 -0.013408	 0.008920	 -0.006751	 0.010617	 0.004388	 0.999911	 1
1495573456.008	 0	 -0.037028	 -0.005886	 0.115097	 0.021243	 -0.013707	 0.010124	 -0.006907	 0.010586	 0.004989	 0.999908	 1
1495573456.018	 0	 -0.047069	 -0.009392	 0.049792	 0.021297	 -0.014560	 0.010828	 -0.007337	 0.010609	 0.005336	 0.999903	 1
1495573456.028	 0	 -0.067665	 -0.007604	 -0.018709	 0.021190	 -0.015179	 0.010762	 -0.007646	 0.010554	 0.005300	 0.999901	 1
1495573456.038	 0	 -0.095411	 -0.009676	 -0.017812	 0.021118	 -0.016052	 0.010610	 -0.008081	 0.010516	 0.005220	 0.999898	 1
1495573456.048	 0	 -0.082297	 0.026320	 -0.040819	 0.021221	 -0.017022	 0.010267	 -0.008565	 0.010566	 0.005043	 0.999895	 1
1495573456.058	 0	 -0.028226	 0.007198	 -0.017252	 0.021210	 -0.017565	 0.010043	 -0.008835	 0.010560	 0.004928	 0.999893	 1
1495573456.068	 0	 -0.045298	 0.023192	 -0.013939	 0.021391	 -0.017957	 0.009971	 -0.009031	 0.010650	 0.004889	 0.999891	 1
1495573456.078	 0	 -0.104157	 0.003697	 -0.098937	 0.021462	 -0.018816	 0.009255	 -0.009457	 0.010687	 0.004526	 0.999888	 1
1495573456.088	 0	 -0.192182	 0.008916	 -0.145303	 0.021524	 -0.020540	 0.007904	 -0.010312	 0.010720	 0.003841	 0.999882	 1
1495573456.098	 0	 -0.184166	 0.007966	 -0.086477	 0.020488	 -0.021846	 0.006843	 -0.010957	 0.010206	 0.003309	 0.999882	 1
1495573456.108	 0	 -0.118910	 0.006713	 0.094509	 0.020563	 -0.023166	 0.007302	 -0.011620	 0.010238	 0.003531	 0.999874	 1
1495573456.118	 0	 -0.125084	 -0.002425	 0.171331	 0.020574	 -0.024315	 0.009005	 -0.012203	 0.010231	 0.004377	 0.999864	 1
1495573456.128	 0	 -0.117320	 -0.002590	 0.143577	 0.020612	 -0.025498	 0.010493	 -0.012802	 0.010238	 0.005114	 0.999853	 1
1495573456.138	 0	 -0.103308	 -0.007893	 0.140380	 0.020857	 -0.025849	 0.011931	 -0.012985	 0.010350	 0.005830	 0.999845	 1
1495573456.148	 0	 -0.103148	 -0.007975	 0.125414	 0.020796	 -0.026864	 0.013214	 -0.013499	 0.010308	 0.006466	 0.999835	 1
1495573456.158	 0	 -0.099229	 -0.009933	 0.157480	 0.020744	 -0.027809	 0.014708	 -0.013979	 0.010268	 0.007208	 0.999824	 1
1495573456.168	 0	 -0.090524	 -0.003652	 0.142638	 0.020724	 -0.028721	 0.016206	 -0.014443	 0.010244	 0.007953	 0.999812	 1
1495573456.178	 0	 -0.063504	 -0.001529	 0.104322	 0.022063	 -0.029694	 0.017371	 -0.014941	 0.010900	 0.008520	 0.999793	 1
1495573456.188	 0	 -0.054716	 0.000453	 0.080875	 0.022083	 -0.030232	 0.018241	 -0.015215	 0.010902	 0.008952	 0.999785	 1
1495573456.198	 0	 -0.065517	 0.001605	 0.093660	 0.022123	 -0.030819	 0.019060	 -0.015512	 0.010913	 0.009358	 0.999776	 1
1495573456.208	 0	 -0.079866	 0.000292	 0.237881	 0.022164	 -0.031524	 0.021017	 -0.015876	 0.010914	 0.010332	 0.999761	 1
1495573456.218	 0	 -0.083564	 -0.003160	 0.383201	 0.022237	 -0.032286	 0.024509	 -0.016276	 0.010918	 0.012072	 0.999735	 1
1495573456.228	 0	 -0.088426	 -0.002848	 0.438766	 0.022358	 -0.033033	 0.028774	 -0.016674	 0.010938	 0.014199	 0.999700	 1
1495573456.238	 0	 -0.103358	 -0.015591	 0.436393	 0.022404	 -0.033925	 0.033183	 -0.017144	 0.010917	 0.016397	 0.999659	 1
1495573456.248	 0	 -0.098847	 -0.013595	 0.413993	 0.022455	 -0.034816	 0.037333	 -0.017612	 0.010898	 0.018466	 0.999615	 1
1495573456.258	 0	 -0.102515	 -0.011766	 0.358409	 0.022439	 -0.035732	 0.041075	 -0.018091	 0.010848	 0.020331	 0.999571	 1
1495573456.268	 0	 -0.106955	 -0.005829	 0.276147	 0.022436	 -0.036721	 0.044010	 -0.018601	 0.010809	 0.021792	 0.999531	 1
1495573456.278	 0	 -0.141499	 0.072640	 0.228823	 0.022971	 -0.037968	 0.046391	 -0.019243	 0.011040	 0.022970	 0.999490	 1
1495573456.288	 0	 -0.137507	 0.524467	 0.234386	 0.026922	 -0.039305	 0.048701	 -0.019971	 0.012976	 0.024077	 0.999426	 1
1495573456.298	 0	 -0.182794	 1.069065	 0.276104	 0.036329	 -0.040878	 0.051370	 -0.020894	 0.017629	 0.025301	 0.999306	 1
1495573456.308	 0	 -0.218609	 1.501982	 0.310087	 0.050292	 -0.042858	 0.054457	 -0.022097	 0.024545	 0.026672	 0.999099	 1
1495573456.318	 0	 -0.116818	 1.675013	 0.297780	 0.066810	 -0.044226	 0.057553	 -0.023050	 0.032741	 0.028011	 0.998805	 1
1495573456.328	 0	 0.188133	 1.456391	 0.269979	 0.082082	 -0.042978	 0.060174	 -0.022694	 0.040356	 0.029169	 0.998502	 1
1495573456.338	 0	 0.409735	 1.019335	 0.317097	 0.093324	 -0.039133	 0.062824	 -0.020999	 0.045999	 0.030455	 0.998256	 1
1495573456.348	 0	 0.595680	 0.882104	 0.360221	 0.102207	 -0.033439	 0.065754	 -0.018367	 0.050498	 0.031970	 0.998043	 1
1495573456.358	 0	 0.905122	 0.877241	 0.348962	 0.111067	 -0.024991	 0.068354	 -0.014365	 0.055042	 0.033422	 0.997821	 1
1495573456.368	 0	 1.211373	 0.628183	 0.393486	 0.118090	 -0.013319	 0.070814	 -0.008733	 0.058737	 0.034944	 0.997623	 1
1495573456.378	 0	 1.340163	 0.383354	 0.376196	 0.122302	 0.000086	 0.073030	 -0.002188	 0.061074	 0.036441	 0.997465	 1
1495573456.388	 0	 1.308398	 0.568442	 0.386850	 0.127178	 0.013590	 0.075113	 0.004390	 0.063754	 0.037902	 0.997236	 1
1495573456.398	 0	 1.027431	 0.938923	 0.393122	 0.135568	 0.025006	 0.077605	 0.009837	 0.068160	 0.039547	 0.996842	 1
1495573456.408	 0	 0.682394	 1.123337	 0.373257	 0.146243	 0.033010	 0.080201	 0.013518	 0.073647	 0.041182	 0.996342	 1
1495573456.418	 0	 0.485342	 1.237402	 0.367204	 0.158116	 0.038665	 0.083021	 0.015978	 0.079693	 0.042887	 0.995768	 1
1495573456.428	 0	 0.526145	 1.083992	 0.317465	 0.169349	 0.044088	 0.085411	 0.018334	 0.085413	 0.044391	 0.995187	 1
1495573456.438	 0	 0.679851	 0.666021	 0.333459	 0.176963	 0.050911	 0.087486	 0.021466	 0.089361	 0.045791	 0.994714	 1
1495573456.448	 0	 0.926389	 0.354278	 0.365140	 0.180805	 0.059642	 0.089487	 0.025629	 0.091477	 0.047215	 0.994357	 1
1495573456.458	 0	 1.292368	 0.562130	 0.390996	 0.185578	 0.072273	 0.090981	 0.031725	 0.094135	 0.048594	 0.993867	 1
1495573456.468	 0	 1.454338	 0.729530	 0.535008	 0.192317	 0.086935	 0.093168	 0.038739	 0.097830	 0.050476	 0.993167	 1
1495573456.478	 0	 1.504796	 0.863893	 0.627785	 0.200196	 0.102670	 0.096245	 0.046196	 0.102140	 0.052922	 0.992287	 1
1495573456.488	 0	 1.482771	 1.011649	 0.618791	 0.209495	 0.118386	 0.099311	 0.053581	 0.107165	 0.055455	 0.991246	 1
1495573456.498	 0	 1.313902	 1.180767	 0.580424	 0.220419	 0.132819	 0.102129	 0.060270	 0.112968	 0.057910	 0.990077	 1
1495573456.508	 0	 1.088706	 1.255721	 0.605813	 0.232107	 0.145121	 0.105419	 0.065825	 0.119122	 0.060576	 0.988842	 1
1495573456.518	 0	 1.269582	 1.276369	 0.552501	 0.245286	 0.158211	 0.107912	 0.071739	 0.126006	 0.063011	 0.987424	 1
1495573456.528	 0	 1.414623	 0.972339	 0.600847	 0.254888	 0.172742	 0.110339	 0.078451	 0.131151	 0.065438	 0.986084	 1
1495573456.538	 0	 1.694734	 0.728379	 0.597191	 0.262620	 0.189809	 0.111882	 0.086511	 0.135392	 0.067569	 0.984692	 1
1495573456.548	 0	 1.846643	 0.305464	 0.680460	 0.266380	 0.208871	 0.113478	 0.095666	 0.137720	 0.069721	 0.983372	 1
1495573456.558	 0	 1.868686	 0.017782	 0.762566	 0.266616	 0.228636	 0.115762	 0.105229	 0.138365	 0.072097	 0.982132	 1
1495573456.568	 0	 1.824029	 0.103980	 0.764457	 0.266555	 0.248206	 0.118392	 0.114671	 0.138889	 0.074606	 0.980813	 1
1495573456.578	 0	 1.696824	 0.357054	 0.734822	 0.268889	 0.266660	 0.120987	 0.123463	 0.140571	 0.077165	 0.979307	 1
1495573456.588	 0	 1.572556	 0.341587	 0.782082	 0.271597	 0.283931	 0.124177	 0.131601	 0.142460	 0.079977	 0.977748	 1
1495573456.598	 0	 1.518411	 0.177164	 0.828954	 0.272608	 0.300658	 0.128115	 0.139470	 0.143572	 0.083013	 0.976240	 1
1495573456.608	 0	 1.553295	 0.090007	 0.843034	 0.272434	 0.317555	 0.132200	 0.147448	 0.144142	 0.086041	 0.974720	 1
1495573456.618	 0	 1.554862	 0.061563	 0.890798	 0.271838	 0.334731	 0.136712	 0.155538	 0.144569	 0.089247	 0.973110	 1
1495573456.628	 0	 1.662624	 -0.245621	 0.933564	 0.268325	 0.352650	 0.141347	 0.164104	 0.143633	 0.092300	 0.971556	 1
1495573456.638	 0	 1.810080	 -0.297611	 0.999979	 0.263651	 0.372160	 0.146618	 0.173449	 0.142261	 0.095607	 0.969813	 1
1495573456.648	 0	 2.014087	 -0.336421	 0.967439	 0.258780	 0.393368	 0.151193	 0.183674	 0.140816	 0.098592	 0.967840	 1
1495573456.658	 0	 2.174153	 -0.568167	 1.019957	 0.252000	 0.416361	 0.155859	 0.194847	 0.138543	 0.101460	 0.965684	 1
1495573456.668	 0	 2.235697	 -0.841583	 1.001962	 0.242337	 0.440124	 0.160621	 0.206528	 0.134961	 0.104016	 0.963490	 1
1495573456.678	 0	 2.290293	 -0.917331	 0.970320	 0.231331	 0.464231	 0.165181	 0.218455	 0.130780	 0.106205	 0.961194	 1
1495573456.688	 0	 2.474924	 -0.821942	 0.977807	 0.220774	 0.489699	 0.169717	 0.231009	 0.126913	 0.108337	 0.958536	 1
1495573456.698	 0	 2.739861	 -0.438484	 1.007422	 0.213084	 0.517668	 0.174249	 0.244592	 0.124554	 0.110754	 0.955194	 1
1495573456.708	 0	 2.986785	 0.110943	 1.055014	 0.210550	 0.548124	 0.178861	 0.259035	 0.124793	 0.113828	 0.950984	 1
1495573456.718	 0	 3.131797	 0.019224	 1.242793	 0.208310	 0.580638	 0.184917	 0.274294	 0.125477	 0.117618	 0.946142	 1
1495573456.728	 0	 3.095168	 -0.450830	 1.392906	 0.200217	 0.613486	 0.193211	 0.289853	 0.123811	 0.121530	 0.941215	 1
1495573456.738	 0	 2.924727	 -0.702262	 1.626238	 0.186655	 0.645381	 0.205048	 0.305036	 0.120232	 0.126037	 0.936276	 1
1495573456.748	 0	 2.732715	 -0.474199	 1.667577	 0.172544	 0.675330	 0.219336	 0.319172	 0.116935	 0.131257	 0.931250	 1
1495573456.758	 0	 2.634886	 -0.291677	 1.770854	 0.158954	 0.704013	 0.235772	 0.332543	 0.114431	 0.137236	 0.926006	 1
1495573456.768	 0	 2.975346	 -0.566420	 1.405823	 0.144156	 0.734579	 0.249965	 0.346982	 0.111335	 0.141699	 0.920396	 1
1495573456.778	 0	 2.974736	 -0.670460	 0.847604	 0.132743	 0.765365	 0.257489	 0.361605	 0.108852	 0.143401	 0.914784	 1
1495573456.788	 0	 2.538307	 -0.633467	 0.471617	 0.124231	 0.792260	 0.260328	 0.374416	 0.106770	 0.143264	 0.909884	 1
1495573456.798	 0	 1.841917	 -0.340243	 0.211785	 0.119656	 0.812461	 0.260800	 0.383952	 0.105750	 0.142661	 0.906116	 1
1495573456.808	 0	 1.233500	 0.022275	 0.016335	 0.119981	 0.825886	 0.259197	 0.390128	 0.106225	 0.142018	 0.903519	 1
1495573456.818	 0	 1.441777	 0.906564	 0.245281	 0.127289	 0.839206	 0.258821	 0.395678	 0.110067	 0.143311	 0.900437	 1
1495573456.828	 0	 2.202426	 1.198955	 1.280163	 0.130305	 0.860056	 0.269691	 0.404280	 0.114569	 0.148834	 0.895143	 1
1495573456.838	 0	 3.020319	 1.603180	 2.566860	 0.122983	 0.890572	 0.298640	 0.416868	 0.118798	 0.160180	 0.886821	 1
1495573456.848	 0	 3.557477	 2.217065	 3.610922	 0.105740	 0.928231	 0.346196	 0.432187	 0.123539	 0.177102	 0.875550	 1
1495573456.858	 0	 3.838542	 2.717549	 4.246033	 0.079730	 0.969221	 0.409902	 0.448574	 0.129264	 0.198120	 0.861870	 1
1495573456.868	 0	 4.027104	 2.699268	 4.463805	 0.044070	 1.011319	 0.485097	 0.465462	 0.135021	 0.220429	 0.846478	 1
1495573456.878	 0	 3.887693	 1.961963	 4.503201	 -0.007678	 1.051178	 0.570320	 0.482392	 0.137952	 0.241492	 0.830631	 1
1495573456.888	 0	 3.659884	 1.416283	 4.563723	 -0.077052	 1.085972	 0.666663	 0.498682	 0.137772	 0.261119	 0.814955	 1
1495573456.898	 0	 3.524520	 1.148889	 4.805596	 -0.165168	 1.115245	 0.778835	 0.514456	 0.135461	 0.280657	 0.798885	 1
1495573456.908	 0	 3.466809	 1.069785	 4.901599	 -0.269550	 1.138418	 0.906163	 0.529735	 0.132025	 0.300263	 0.782172	 1
1495573456.918	 0	 3.522817	 1.165177	 4.867788	 -0.384430	 1.155753	 1.044443	 0.544536	 0.128767	 0.319675	 0.764661	 1
1495573456.928	 0	 3.641357	 1.465487	 4.807957	 -0.505716	 1.167430	 1.191424	 0.558818	 0.126612	 0.339177	 0.746091	 1
1495573456.938	 0	 3.772148	 1.929926	 4.828238	 -0.629658	 1.173036	 1.345562	 0.572300	 0.126243	 0.359469	 0.726166	 1
1495573456.948	 0	 3.785523	 2.029113	 4.891526	 -0.754843	 1.171142	 1.503132	 0.585077	 0.126405	 0.380171	 0.705107	 1
1495573456.958	 0	 3.568387	 1.861137	 4.818839	 -0.873906	 1.160930	 1.653184	 0.596899	 0.125819	 0.400136	 0.683939	 1
1495573456.968	 0	 3.255187	 1.614079	 4.638847	 -0.979236	 1.143649	 1.786622	 0.607502	 0.124216	 0.418689	 0.663484	 1
1495573456.978	 0	 2.962447	 1.406257	 4.447685	 -1.068932	 1.121229	 1.901474	 0.616978	 0.121694	 0.435761	 0.643926	 1
1495573456.988	 0	 2.713892	 1.209310	 4.315682	 -1.144247	 1.095072	 1.999569	 0.625493	 0.118398	 0.451623	 0.625122	 1
1495573456.998	 0	 2.479074	 1.016662	 4.196633	 -1.207335	 1.066107	 2.082961	 0.633246	 0.114231	 0.466350	 0.607017	 1
1495573457.008	 0	 2.226514	 0.850448	 4.045746	 -1.259262	 1.035478	 2.152927	 0.640202	 0.109366	 0.479972	 0.589752	 1
1495573457.018	 0	 1.935148	 0.720146	 3.839507	 -1.300852	 1.004243	 2.210424	 0.646240	 0.103960	 0.492503	 0.573591	 1
1495573457.028	 0	 1.646963	 0.651020	 3.546379	 -1.332988	 0.973821	 2.256725	 0.651229	 0.098424	 0.503914	 0.558824	 1
1495573457.038	 0	 1.395030	 0.640363	 3.264849	 -1.357191	 0.944922	 2.294032	 0.655168	 0.093081	 0.514395	 0.545425	 1
1495573457.048	 0	 1.191361	 0.539581	 3.042331	 -1.376019	 0.917427	 2.324580	 0.658388	 0.087747	 0.523963	 0.533187	 1
1495573457.058	 0	 0.967460	 0.314319	 2.794661	 -1.391756	 0.891499	 2.349261	 0.661306	 0.082060	 0.532210	 0.522200	 1
1495573457.068	 0	 0.705904	 0.133436	 2.485337	 -1.404411	 0.867844	 2.367894	 0.663828	 0.076150	 0.539031	 0.512816	 1
1495573457.078	 0	 0.460108	 0.025005	 2.211191	 -1.413970	 0.846448	 2.381164	 0.665829	 0.070176	 0.544729	 0.504993	 1
1495573457.088	 0	 0.271481	 -0.013078	 1.989521	 -1.420908	 0.826961	 2.390385	 0.667318	 0.064276	 0.549661	 0.498426	 1
1495573457.098	 0	 0.153770	 0.088910	 1.744287	 -1.425039	 0.809513	 2.396804	 0.668154	 0.058924	 0.554229	 0.492877	 1
1495573457.108	 0	 0.139841	 0.158628	 1.463926	 -1.427206	 0.794695	 2.401854	 0.668506	 0.054586	 0.558400	 0.488169	 1
1495573457.118	 0	 0.237191	 0.108275	 1.229714	 -1.429833	 0.782413	 2.407296	 0.668996	 0.051215	 0.561845	 0.483892	 1
1495573457.128	 0	 0.338416	 0.116639	 1.042209	 -1.433326	 0.772203	 2.413798	 0.669729	 0.048766	 0.564714	 0.479774	 1
1495573457.138	 0	 0.260286	 0.199887	 0.882472	 -1.435416	 0.763576	 2.419368	 0.670111	 0.046937	 0.567416	 0.476222	 1
1495573457.148	 0	 0.116313	 0.269272	 0.693355	 -1.435327	 0.756466	 2.422855	 0.669940	 0.045493	 0.569968	 0.473547	 1
1495573457.158	 0	 -0.075060	 0.084662	 0.503011	 -1.434298	 0.751081	 2.423543	 0.669578	 0.043972	 0.571753	 0.472049	 1
1495573457.168	 0	 -0.278400	 -0.168972	 0.322448	 -1.433856	 0.747129	 2.421183	 0.669459	 0.041822	 0.572280	 0.471775	 1
1495573457.178	 0	 -0.470429	 -0.256958	 0.110837	 -1.432574	 0.744957	 2.415784	 0.669175	 0.039513	 0.571948	 0.472778	 1
1495573457.188	 0	 -0.571881	 -0.255677	 -0.076753	 -1.430110	 0.744503	 2.408351	 0.668608	 0.037441	 0.571119	 0.474747	 1
1495573457.198	 0	 -0.581951	 -0.209687	 -0.223761	 -1.426789	 0.745551	 2.400210	 0.667826	 0.035901	 0.570041	 0.477255	 1
1495573457.208	 0	 -0.554299	 -0.130432	 -0.301748	 -1.422817	 0.747569	 2.392167	 0.666872	 0.034918	 0.568959	 0.479945	 1
1495573457.218	 0	 -0.516031	 -0.105959	 -0.285212	 -1.418733	 0.749677	 2.384558	 0.665883	 0.034149	 0.567982	 0.482525	 1
1495573457.228	 0	 -0.482293	 -0.055806	 -0.239522	 -1.414605	 0.751380	 2.377487	 0.664865	 0.033429	 0.567234	 0.484853	 1
1495573457.238	 0	 -0.427248	 -0.000356	 -0.190448	 -1.410404	 0.752689	 2.371139	 0.663808	 0.032829	 0.566770	 0.486881	 1
1495573457.248	 0	 -0.337465	 0.022280	 -0.104179	 -1.406738	 0.753377	 2.366038	 0.662869	 0.032288	 0.566575	 0.488422	 1
1495573457.258	 0	 -0.299114	 -0.017655	 -0.007189	 -1.403919	 0.753192	 2.361921	 0.662131	 0.031544	 0.566547	 0.489502	 1
1495573457.268	 0	 -0.344707	 -0.099104	 0.052504	 -1.401744	 0.752236	 2.357606	 0.661557	 0.030291	 0.566443	 0.490476	 1
1495573457.278	 0	 -0.399190	 -0.213886	 0.040119	 -1.400112	 0.751136	 2.352549	 0.661140	 0.028609	 0.566010	 0.491638	 1
1495573457.288	 0	 -0.408295	 -0.268302	 -0.007635	 -1.401858	 0.750620	 2.349079	 0.661667	 0.026839	 0.564705	 0.492528	 1
1495573457.298	 0	 -0.380076	 -0.232421	 -0.046599	 -1.400703	 0.750360	 2.343800	 0.661403	 0.025281	 0.563849	 0.493945	 1
1495573457.308	 0	 -0.298805	 -0.145415	 -0.050449	 -1.399374	 0.750315	 2.339396	 0.661081	 0.024136	 0.563211	 0.495159	 1
1495573457.318	 0	 -0.173843	 -0.055272	 -0.049754	 -1.398192	 0.750446	 2.336546	 0.660787	 0.023536	 0.562863	 0.495976	 1
1495573457.328	 0	 -0.061429	 0.005108	 -0.067686	 -1.401528	 0.751980	 2.338103	 0.661753	 0.023797	 0.561768	 0.495917	 1
1495573457.338	 0	 -0.041208	 0.012544	 -0.062144	 -1.400911	 0.752552	 2.337389	 0.661605	 0.023928	 0.561654	 0.496237	 1
1495573457.348	 0	 -0.072437	 -0.026621	 -0.041409	 -1.400392	 0.752899	 2.336429	 0.661482	 0.023869	 0.561502	 0.496576	 1
1495573457.358	 0	 -0.100463	 -0.103036	 -0.027528	 -1.400286	 0.753032	 2.335098	 0.661472	 0.023504	 0.561173	 0.496978	 1
1495573457.368	 0	 -0.106165	 -0.167778	 -0.004817	 -1.400296	 0.752222	 2.333275	 0.661471	 0.022596	 0.560917	 0.497311	 1
1495573457.378	 0	 -0.089137	 -0.163532	 -0.000399	 -1.401105	 0.752060	 2.332029	 0.661706	 0.021923	 0.560379	 0.497634	 1
1495573457.388	 0	 -0.067598	 -0.149842	 -0.017221	 -1.401934	 0.752051	 2.331036	 0.661949	 0.021384	 0.559860	 0.497919	 1
1495573457.398	 0	 -0.050225	 -0.157478	 -0.047155	 -1.402936	 0.752349	 2.330231	 0.662247	 0.020979	 0.559254	 0.498220	 1
1495573457.408	 0	 -0.055084	 -0.144922	 -0.075818	 -1.406601	 0.750274	 2.331276	 0.663196	 0.019639	 0.558813	 0.497507	 1
1495573457.418	 0	 -0.082676	 -0.131111	 -0.086483	 -1.407122	 0.750985	 2.330077	 0.663375	 0.019377	 0.558166	 0.498005	 1
1495573457.428	 0	 -0.097656	 -0.100243	 -0.084042	 -1.410063	 0.750853	 2.330572	 0.664187	 0.018760	 0.557346	 0.497865	 1
1495573457.438	 0	 -0.083879	 -0.078940	 -0.071949	 -1.409981	 0.751458	 2.329222	 0.664195	 0.018557	 0.556887	 0.498375	 1
1495573457.448	 0	 -0.053215	 -0.062872	 -0.041662	 -1.411525	 0.752085	 2.329325	 0.664643	 0.018440	 0.556244	 0.498499	 1
1495573457.458	 0	 -0.012027	 -0.041454	 0.000508	 -1.411773	 0.752141	 2.329010	 0.664717	 0.018294	 0.556070	 0.498602	 1
1495573457.468	 0	 0.014345	 -0.029628	 0.031791	 -1.413331	 0.752088	 2.329952	 0.665140	 0.018200	 0.555800	 0.498342	 1
1495573457.478	 0	 0.025969	 -0.032785	 0.041434	 -1.413923	 0.751720	 2.330359	 0.665289	 0.018051	 0.555795	 0.498153	 1
1495573457.488	 0	 0.034567	 -0.040271	 0.037123	 -1.416018	 0.750697	 2.331817	 0.665828	 0.017634	 0.555714	 0.497538	 1
1495573457.498	 0	 0.036877	 -0.063775	 0.016537	 -1.416980	 0.750524	 2.332372	 0.666085	 0.017515	 0.555575	 0.497354	 1
1495573457.508	 0	 0.029895	 -0.049099	 -0.020708	 -1.420051	 0.749146	 2.334312	 0.666881	 0.016887	 0.555373	 0.496533	 1
1495573457.518	 0	 0.035562	 -0.021613	 -0.047066	 -1.420589	 0.749600	 2.334681	 0.667041	 0.017045	 0.555173	 0.496537	 1
1495573457.528	 0	 0.054856	 -0.000413	 -0.052049	 -1.421004	 0.750187	 2.335229	 0.667168	 0.017343	 0.555026	 0.496520	 1
1495573457.538	 0	 0.077170	 -0.008922	 -0.045622	 -1.421650	 0.750756	 2.336109	 0.667355	 0.017687	 0.554889	 0.496410	 1
1495573457.548	 0	 0.089874	 -0.007828	 -0.033766	 -1.423553	 0.750306	 2.337924	 0.667855	 0.017654	 0.554815	 0.495821	 1
1495573457.558	 0	 0.089753	 0.001810	 -0.020821	 -1.424328	 0.750671	 2.339078	 0.668069	 0.017982	 0.554752	 0.495591	 1
1495573457.568	 0	 0.084506	 -0.001417	 -0.029440	 -1.425078	 0.751036	 2.340188	 0.668277	 0.018303	 0.554687	 0.495372	 1
1495573457.578	 0	 0.075203	 -0.061140	 -0.067636	 -1.426154	 0.751704	 2.341133	 0.668585	 0.018600	 0.554397	 0.495271	 1
1495573457.588	 0	 0.050094	 -0.120942	 -0.118695	 -1.429223	 0.750143	 2.342796	 0.669379	 0.017818	 0.554166	 0.494484	 1
1495573457.598	 0	 0.012225	 -0.146683	 -0.172660	 -1.430606	 0.751738	 2.342791	 0.669803	 0.018065	 0.553309	 0.494860	 1
1495573457.608	 0	 -0.020327	 -0.168169	 -0.224406	 -1.431850	 0.753789	 2.342254	 0.670204	 0.018337	 0.552254	 0.495486	 1
1495573457.618	 0	 -0.098642	 -0.184306	 -0.284879	 -1.432587	 0.756306	 2.340724	 0.670485	 0.018573	 0.551006	 0.496485	 1
1495573457.628	 0	 -0.225625	 -0.201598	 -0.367984	 -1.438580	 0.754853	 2.341827	 0.672088	 0.016919	 0.549626	 0.495905	 1
1495573457.638	 0	 -0.371896	 -0.278425	 -0.468042	 -1.437476	 0.758753	 2.336523	 0.671926	 0.016852	 0.547714	 0.498238	 1
1495573457.648	 0	 -0.516990	 -0.396811	 -0.585708	 -1.435869	 0.763550	 2.328962	 0.671670	 0.016486	 0.545171	 0.501373	 1
1495573457.658	 0	 -0.614702	 -0.519765	 -0.745940	 -1.434198	 0.769645	 2.319570	 0.671451	 0.016004	 0.541842	 0.505276	 1
1495573457.668	 0	 -0.661358	 -0.597525	 -0.984453	 -1.432487	 0.777770	 2.308894	 0.671293	 0.015857	 0.537656	 0.509942	 1
1495573457.678	 0	 -0.706742	 -0.637085	 -1.235319	 -1.430386	 0.788332	 2.297070	 0.671118	 0.016330	 0.532637	 0.515395	 1
1495573457.688	 0	 -0.868402	 -0.600883	 -1.471971	 -1.426255	 0.801004	 2.282774	 0.670505	 0.017290	 0.527047	 0.521868	 1
1495573457.698	 0	 -1.133044	 -0.566873	 -1.754089	 -1.418495	 0.815882	 2.264188	 0.669085	 0.018610	 0.520871	 0.529785	 1
1495573457.708	 0	 -1.429246	 -0.576659	 -2.085015	 -1.406455	 0.833305	 2.240110	 0.666772	 0.020244	 0.513829	 0.539431	 1
1495573457.718	 0	 -1.732931	 -0.661973	 -2.427596	 -1.390148	 0.853314	 2.209869	 0.663663	 0.022062	 0.505600	 0.550847	 1
1495573457.728	 0	 -2.058297	 -0.763032	 -2.740553	 -1.369093	 0.875489	 2.172569	 0.659743	 0.023848	 0.496053	 0.564005	 1
1495573457.738	 0	 -2.376920	 -0.786057	 -2.972344	 -1.342004	 0.898851	 2.127625	 0.654794	 0.025542	 0.485533	 0.578663	 1
1495573457.748	 0	 -2.634357	 -0.757766	 -3.131562	 -1.308183	 0.922362	 2.075211	 0.648744	 0.027185	 0.474418	 0.594408	 1
1495573457.758	 0	 -2.821867	 -0.728295	 -3.246569	 -1.267752	 0.945283	 2.015909	 0.641718	 0.028837	 0.462869	 0.610835	 1
1495573457.768	 0	 -2.983914	 -0.789248	 -3.364688	 -1.221279	 0.967203	 1.949778	 0.633949	 0.030366	 0.450675	 0.627757	 1
1495573457.778	 0	 -3.188479	 -0.917237	 -3.508441	 -1.168579	 0.987767	 1.875663	 0.625498	 0.031504	 0.437472	 0.645274	 1
1495573457.788	 0	 -3.407785	 -0.975069	 -3.657824	 -1.108295	 1.006400	 1.792481	 0.616133	 0.032343	 0.423304	 0.663437	 1
1495573457.798	 0	 -3.531356	 -0.879708	 -3.755651	 -1.039900	 1.022369	 1.701314	 0.605728	 0.033374	 0.408681	 0.681880	 1
1495573457.808	 0	 -3.481840	 -0.706579	 -3.767164	 -0.965476	 1.035136	 1.605793	 0.594605	 0.035033	 0.394176	 0.699888	 1
1495573457.818	 0	 -3.315144	 -0.551670	 -3.767593	 -0.887846	 1.044976	 1.509061	 0.583280	 0.037513	 0.379870	 0.716991	 1
1495573457.828	 0	 -3.140770	 -0.543727	 -3.813613	 -0.808916	 1.052362	 1.411923	 0.572126	 0.040587	 0.365342	 0.733178	 1
1495573457.838	 0	 -3.075898	 -0.730502	 -3.927805	 -0.729374	 1.057258	 1.312803	 0.561214	 0.043574	 0.349812	 0.748847	 1
1495573457.848	 0	 -3.128114	 -0.911874	 -4.063927	 -0.648582	 1.058867	 1.210199	 0.550161	 0.046134	 0.333022	 0.764389	 1
1495573457.858	 0	 -3.241115	 -0.969711	 -4.179613	 -0.566028	 1.056194	 1.104558	 0.538457	 0.048491	 0.315337	 0.779920	 1
1495573457.868	 0	 -3.363436	 -0.946803	 -4.307184	 -0.482276	 1.048811	 0.997346	 0.525865	 0.050993	 0.297006	 0.795395	 1
1495573457.878	 0	 -3.491256	 -1.077030	 -4.446284	 -0.399798	 1.036483	 0.890070	 0.512458	 0.053303	 0.277734	 0.810808	 1
1495573457.888	 0	 -3.611738	 -1.359368	 -4.600039	 -0.321770	 1.019237	 0.784164	 0.498436	 0.054780	 0.257033	 0.826133	 1
1495573457.898	 0	 -3.728139	 -1.622466	 -4.733225	 -0.250105	 0.997244	 0.681081	 0.483820	 0.055225	 0.234818	 0.841266	 1
1495573457.908	 0	 -3.847589	 -1.571186	 -4.725743	 -0.184879	 0.970464	 0.583728	 0.468276	 0.055432	 0.212204	 0.855929	 1
1495573457.918	 0	 -3.919570	 -1.292004	 -4.628627	 -0.125637	 0.939386	 0.494637	 0.451679	 0.056308	 0.190315	 0.869825	 1
1495573457.928	 0	 -3.887102	 -0.978915	 -4.517718	 -0.071946	 0.905404	 0.414222	 0.434423	 0.058234	 0.169405	 0.882716	 1
1495573457.938	 0	 -3.798441	 -0.817917	 -4.401964	 -0.024230	 0.869739	 0.342013	 0.416986	 0.060861	 0.149295	 0.894500	 1
1495573457.948	 0	 -3.660871	 -0.967640	 -4.326109	 0.015924	 0.833323	 0.276622	 0.399828	 0.063007	 0.129263	 0.905240	 1
1495573457.958	 0	 -3.498619	 -1.234531	 -4.284700	 0.048304	 0.796945	 0.216343	 0.383228	 0.064005	 0.108789	 0.914989	 1
1495573457.968	 0	 -3.351832	 -1.550072	 -4.202280	 0.072954	 0.760981	 0.160566	 0.367218	 0.063515	 0.087912	 0.923790	 1
1495573457.978	 0	 -3.277199	 -1.750213	 -4.035443	 0.090527	 0.725235	 0.109523	 0.351513	 0.061638	 0.067149	 0.931735	 1
1495573457.988	 0	 -3.256617	 -1.635986	 -3.746377	 0.103382	 0.689494	 0.064050	 0.335777	 0.059410	 0.047548	 0.938863	 1
1495573457.998	 0	 -3.221849	 -1.274534	 -3.344100	 0.114022	 0.654004	 0.025138	 0.319980	 0.057987	 0.030184	 0.945166	 1
1495573458.008	 0	 -3.059331	 -0.887645	 -2.914113	 0.123576	 0.619908	 -0.007214	 0.304643	 0.057708	 0.015406	 0.950592	 1
1495573458.018	 0	 -2.670020	 -0.625994	 -2.567849	 0.132349	 0.589273	 -0.034515	 0.290805	 0.058267	 0.002723	 0.955002	 1
1495573458.028	 0	 -2.081379	 -0.519466	 -2.335751	 0.140265	 0.564167	 -0.058819	 0.279532	 0.059111	 -0.008676	 0.958276	 1
1495573458.038	 0	 -1.473909	 -0.512285	 -2.186014	 0.147242	 0.545167	 -0.081678	 0.271160	 0.059818	 -0.019428	 0.960477	 1
1495573458.048	 0	 -1.031206	 -0.567881	 -2.099916	 0.153175	 0.530991	 -0.103841	 0.265097	 0.060155	 -0.029883	 0.961879	 1
1495573458.058	 0	 -0.809680	 -0.669190	 -2.086095	 0.157837	 0.519478	 -0.125877	 0.260314	 0.059938	 -0.040391	 0.962815	 1
1495573458.068	 0	 -0.770919	 -0.651354	 -2.116673	 0.162183	 0.508644	 -0.148125	 0.255876	 0.059627	 -0.051056	 0.963517	 1
1495573458.078	 0	 -0.858216	 -0.472519	 -2.101042	 0.167573	 0.497117	 -0.170095	 0.251148	 0.060000	 -0.061532	 0.964126	 1
1495573458.088	 0	 -1.015222	 -0.269413	 -1.946513	 0.173994	 0.484290	 -0.190288	 0.245812	 0.061277	 -0.071140	 0.964759	 1
1495573458.098	 0	 -1.131575	 -0.140384	 -1.716781	 0.180275	 0.470411	 -0.207567	 0.239916	 0.063021	 -0.079471	 0.965481	 1
1495573458.108	 0	 -1.160247	 -0.147823	 -1.531021	 0.185563	 0.456352	 -0.222352	 0.233850	 0.064701	 -0.086779	 0.966228	 1
1495573458.118	 0	 -1.212067	 -0.307548	 -1.401768	 0.188578	 0.442086	 -0.235332	 0.227548	 0.065599	 -0.093530	 0.967042	 1
1495573458.128	 0	 -1.283406	 -0.439954	 -1.337490	 0.189497	 0.427270	 -0.247198	 0.220851	 0.065730	 -0.100037	 0.967934	 1
1495573458.138	 0	 -1.337108	 -0.469464	 -1.308204	 0.189463	 0.411958	 -0.258484	 0.213844	 0.065576	 -0.106408	 0.968838	 1
1495573458.148	 0	 -1.403993	 -0.508333	 -1.244894	 0.188796	 0.396178	 -0.269080	 0.206545	 0.065300	 -0.112544	 0.969747	 1
1495573458.158	 0	 -1.466993	 -0.528925	 -1.142856	 0.187086	 0.379884	 -0.278428	 0.198886	 0.064755	 -0.118209	 0.970710	 1
1495573458.168	 0	 -1.432605	 -0.467919	 -1.056408	 0.185360	 0.363828	 -0.286822	 0.191295	 0.064341	 -0.123387	 0.971618	 1
1495573458.178	 0	 -1.320293	 -0.482632	 -0.988651	 0.183400	 0.348868	 -0.294618	 0.184186	 0.063839	 -0.128222	 0.972399	 1
1495573458.188	 0	 -1.209896	 -0.529375	 -0.946953	 0.180783	 0.335133	 -0.302144	 0.177606	 0.062992	 -0.132900	 0.973050	 1
1495573458.198	 0	 -1.111084	 -0.570852	 -0.918079	 0.177675	 0.322444	 -0.309549	 0.171480	 0.061875	 -0.137486	 0.973583	 1
1495573458.208	 0	 -1.047850	 -0.665279	 -0.863317	 0.173524	 0.310588	 -0.316626	 0.165659	 0.060247	 -0.141934	 0.974054	 1
1495573458.218	 0	 -1.042507	 -0.725402	 -0.775301	 0.168433	 0.299114	 -0.322973	 0.159914	 0.058224	 -0.146057	 0.974528	 1
1495573458.228	 0	 -1.062915	 -0.800300	 -0.675843	 0.162221	 0.287637	 -0.328284	 0.154035	 0.055765	 -0.149731	 0.975061	 1
1495573458.238	 0	 -1.057069	 -0.750016	 -0.615333	 0.155853	 0.276300	 -0.332946	 0.148172	 0.053290	 -0.153056	 0.975592	 1
1495573458.248	 0	 -1.029589	 -0.586067	 -0.562935	 0.150801	 0.265284	 -0.337165	 0.142536	 0.051482	 -0.156017	 0.976059	 1
1495573458.258	 0	 -0.997137	 -0.484723	 -0.487761	 0.146703	 0.254724	 -0.340795	 0.137169	 0.050159	 -0.158574	 0.976485	 1
1495573458.268	 0	 -0.990603	 -0.342735	 -0.375880	 0.143630	 0.244440	 -0.343440	 0.131983	 0.049391	 -0.160546	 0.976917	 1
1495573458.278	 0	 -1.010975	 -0.253782	 -0.250895	 0.141248	 0.234211	 -0.344804	 0.126841	 0.049050	 -0.161827	 0.977403	 1
1495573458.288	 0	 -0.993669	 -0.208699	 -0.165801	 0.139205	 0.224133	 -0.345270	 0.121775	 0.048919	 -0.162626	 0.977922	 1
1495573458.298	 0	 -0.901805	 -0.130708	 -0.064946	 0.137589	 0.214932	 -0.344850	 0.117145	 0.048971	 -0.162915	 0.978436	 1
1495573458.308	 0	 -0.791900	 -0.066014	 -0.057160	 0.136680	 0.206836	 -0.344279	 0.113105	 0.049277	 -0.163032	 0.978877	 1
1495573458.318	 0	 -0.684549	 0.040399	 -0.002909	 0.136607	 0.199823	 -0.343526	 0.109656	 0.049902	 -0.162963	 0.979249	 1
1495573458.328	 0	 -0.548679	 0.216069	 0.089755	 0.138007	 0.194190	 -0.342045	 0.106980	 0.051164	 -0.162399	 0.979574	 1
1495573458.338	 0	 -0.409431	 0.375682	 0.162999	 0.140977	 0.190061	 -0.339987	 0.105149	 0.053089	 -0.161408	 0.979833	 1
1495573458.348	 0	 -0.306397	 0.381039	 0.204228	 0.144391	 0.187108	 -0.337532	 0.103913	 0.055147	 -0.160153	 0.980057	 1
1495573458.358	 0	 -0.220891	 0.266941	 0.168003	 0.146980	 0.184986	 -0.335373	 0.103022	 0.056711	 -0.159053	 0.980241	 1
1495573458.368	 0	 -0.154252	 0.067580	 0.085735	 0.147925	 0.183489	 -0.334035	 0.102327	 0.057372	 -0.158415	 0.980379	 1
1495573458.378	 0	 -0.130770	 -0.092626	 -0.043315	 0.147302	 0.182188	 -0.333933	 0.101638	 0.057183	 -0.158453	 0.980455	 1
1495573458.388	 0	 -0.163804	 -0.127179	 -0.151880	 0.146243	 0.180521	 -0.334997	 0.100769	 0.056753	 -0.159101	 0.980465	 1
1495573458.398	 0	 -0.227480	 -0.068706	 -0.171809	 0.145642	 0.178197	 -0.336413	 0.099624	 0.056588	 -0.159926	 0.980457	 1
1495573458.408	 0	 -0.245855	 -0.017474	 -0.140277	 0.145578	 0.175577	 -0.337541	 0.098370	 0.056727	 -0.160595	 0.980467	 1
1495573458.418	 0	 -0.192735	 -0.006819	 -0.118487	 0.145663	 0.173349	 -0.338450	 0.097313	 0.056918	 -0.161132	 0.980473	 1
1495573458.428	 0	 -0.110653	 -0.032531	 -0.135528	 0.145608	 0.171887	 -0.339543	 0.096624	 0.056965	 -0.161733	 0.980439	 1
1495573458.438	 0	 -0.045228	 -0.067945	 -0.175170	 0.145270	 0.171072	 -0.341095	 0.096242	 0.056796	 -0.162546	 0.980352	 1
1495573458.448	 0	 -0.021569	 -0.072346	 -0.199731	 0.144838	 0.166772	 -0.342994	 0.094158	 0.056870	 -0.163681	 0.980362	 1
1495573458.458	 0	 -0.049258	 -0.035076	 -0.197281	 0.144691	 0.166085	 -0.344904	 0.093864	 0.056769	 -0.164653	 0.980233	 1
1495573458.468	 0	 -0.104672	 0.038418	 -0.189189	 0.145152	 0.164944	 -0.346676	 0.093394	 0.057013	 -0.165548	 0.980113	 1
1495573458.478	 0	 -0.195829	 0.023933	 -0.146018	 0.145844	 0.163051	 -0.348054	 0.092565	 0.057456	 -0.166272	 0.980043	 1
1495573458.488	 0	 -0.677071	 -0.768859	 0.328111	 0.140621	 0.158266	 -0.345514	 0.089720	 0.055435	 -0.165467	 0.980560	 1
1495573458.498	 0	 -1.220578	 -1.260247	 0.494535	 0.127621	 0.148005	 -0.339023	 0.083455	 0.050234	 -0.163250	 0.981764	 1
1495573458.508	 0	 -1.264774	 -1.446172	 0.306019	 0.113340	 0.135850	 -0.334113	 0.076217	 0.044455	 -0.161840	 0.982865	 1
1495573458.518	 0	 -0.911700	 -1.612802	 0.275903	 0.097091	 0.126070	 -0.330238	 0.070024	 0.037429	 -0.160835	 0.983782	 1
1495573458.528	 0	 -0.320106	 -1.463092	 0.240232	 0.081732	 0.121637	 -0.327352	 0.066563	 0.030338	 -0.160059	 0.984393	 1
1495573458.538	 0	 0.212033	 -1.071871	 0.221108	 0.069764	 0.122690	 -0.325164	 0.066096	 0.024433	 -0.159354	 0.984703	 1
1495573458.548	 0	 0.489603	 -0.560140	 0.189294	 0.062789	 0.127162	 -0.323508	 0.067723	 0.020689	 -0.158677	 0.984788	 1
1495573458.558	 0	 0.465676	 -0.182655	 0.199143	 0.059948	 0.132087	 -0.321853	 0.069905	 0.018948	 -0.157859	 0.984802	 1
1495573458.568	 0	 0.259540	 0.029059	 0.162171	 0.059604	 0.135347	 -0.320270	 0.071467	 0.018571	 -0.157027	 0.984830	 1
1495573458.578	 0	 -0.001432	 0.023475	 0.028175	 0.059889	 0.136010	 -0.319644	 0.071810	 0.018681	 -0.156695	 0.984856	 1
1495573458.588	 0	 -0.188525	 -0.029202	 -0.140218	 0.059826	 0.134477	 -0.320533	 0.071059	 0.018742	 -0.157166	 0.984834	 1
1495573458.598	 0	 -0.246142	 -0.060493	 -0.243527	 0.059585	 0.131986	 -0.322618	 0.069834	 0.018750	 -0.158251	 0.984748	 1
1495573458.608	 0	 -0.182125	 -0.068065	 -0.246490	 0.059213	 0.129814	 -0.325005	 0.068758	 0.018661	 -0.159482	 0.984627	 1
1495573458.618	 0	 0.002876	 -0.076058	 -0.092749	 0.058584	 0.129270	 -0.326298	 0.068452	 0.018352	 -0.160151	 0.984545	 1
1495573458.628	 0	 0.192513	 -0.030523	 -0.063399	 0.058267	 0.130701	 -0.327025	 0.069137	 0.018053	 -0.160491	 0.984447	 1
1495573458.638	 0	 0.268090	 0.020498	 -0.039927	 0.058389	 0.133226	 -0.327655	 0.070395	 0.017884	 -0.160748	 0.984320	 1
1495573458.648	 0	 0.234609	 0.083550	 0.009843	 0.059098	 0.135667	 -0.327847	 0.071654	 0.018025	 -0.160768	 0.984223	 1
1495573458.658	 0	 0.157399	 0.095602	 0.050206	 0.059965	 0.137485	 -0.327507	 0.072615	 0.018314	 -0.160533	 0.984185	 1
1495573458.668	 0	 0.057324	 0.063760	 0.026840	 0.060645	 0.138334	 -0.327218	 0.073084	 0.018590	 -0.160348	 0.984176	 1
1495573458.678	 0	 -0.059888	 0.030920	 0.009785	 0.061000	 0.138055	 -0.327079	 0.072974	 0.018792	 -0.160273	 0.984192	 1
1495573458.688	 0	 -0.164508	 -0.009285	 0.010879	 0.060976	 0.136675	 -0.326893	 0.072291	 0.018901	 -0.160211	 0.984251	 1
1495573458.698	 0	 -0.225230	 -0.006024	 0.004186	 0.060849	 0.134592	 -0.326702	 0.071255	 0.019016	 -0.160164	 0.984332	 1
1495573458.708	 0	 -0.254889	 0.013076	 -0.011771	 0.060904	 0.132113	 -0.326619	 0.070039	 0.019250	 -0.160172	 0.984413	 1
1495573458.718	 0	 -0.234410	 0.050174	 -0.025105	 0.061306	 0.129690	 -0.326696	 0.068880	 0.019644	 -0.160245	 0.984475	 1
1495573458.728	 0	 -0.160786	 0.092594	 -0.019921	 0.062152	 0.127884	 -0.326811	 0.068061	 0.020205	 -0.160310	 0.984510	 1
1495573458.738	 0	 -0.083365	 0.083107	 0.019923	 0.062987	 0.126883	 -0.326662	 0.067634	 0.020703	 -0.160228	 0.984542	 1
1495573458.748	 0	 0.003055	 0.110609	 0.022853	 0.063958	 0.126719	 -0.326393	 0.067628	 0.021203	 -0.160067	 0.984559	 1
1495573458.758	 0	 0.078924	 0.118917	 0.011596	 0.065123	 0.127364	 -0.326304	 0.068038	 0.021727	 -0.159970	 0.984535	 1
1495573458.768	 0	 0.074468	 0.101997	 0.026330	 0.066146	 0.128177	 -0.326131	 0.068518	 0.022170	 -0.159832	 0.984514	 1
1495573458.778	 0	 0.018904	 0.084055	 0.032232	 0.066997	 0.128537	 -0.325837	 0.068759	 0.022569	 -0.159651	 0.984517	 1
1495573458.788	 0	 -0.034480	 0.026716	 0.026971	 0.067376	 0.128337	 -0.325541	 0.068688	 0.022782	 -0.159496	 0.984542	 1
1495573458.798	 0	 -0.068669	 -0.025336	 0.022946	 0.067200	 0.127754	 -0.325265	 0.068384	 0.022753	 -0.159379	 0.984583	 1
1495573458.808	 0	 -0.090023	 -0.038056	 0.022678	 0.066793	 0.126928	 -0.324982	 0.067942	 0.022630	 -0.159271	 0.984634	 1
1495573458.818	 0	 -0.085756	 -0.005107	 0.023089	 0.065210	 0.123623	 -0.324523	 0.066185	 0.022135	 -0.159169	 0.984782	 1
1495573458.828	 0	 -0.070659	 0.056499	 0.018579	 0.065591	 0.122891	 -0.324275	 0.065852	 0.022391	 -0.159050	 0.984817	 1
1495573458.838	 0	 -0.039647	 0.102160	 0.019303	 0.066480	 0.122428	 -0.324058	 0.065692	 0.022874	 -0.158924	 0.984837	 1
1495573458.848	 0	 0.009358	 0.114873	 0.027200	 0.067560	 0.122411	 -0.323808	 0.065767	 0.023415	 -0.158765	 0.984845	 1
1495573458.858	 0	 0.045584	 0.112682	 0.027354	 0.067843	 0.121287	 -0.323457	 0.065232	 0.023657	 -0.158607	 0.984900	 1
1495573458.868	 0	 0.051953	 0.108430	 0.029474	 0.068885	 0.121834	 -0.323211	 0.065581	 0.024134	 -0.158440	 0.984893	 1
1495573458.878	 0	 0.331548	 0.289826	 0.049205	 0.071034	 0.123988	 -0.322918	 0.066808	 0.025027	 -0.158177	 0.984830	 1
1495573458.888	 0	 0.366661	 0.352068	 0.167741	 0.074311	 0.127945	 -0.321895	 0.069000	 0.026354	 -0.157471	 0.984757	 1
1495573458.898	 0	 0.271793	 0.261757	 0.145824	 0.077048	 0.130969	 -0.320470	 0.070683	 0.027507	 -0.156602	 0.984745	 1
1495573458.908	 0	 0.172439	 0.079509	 0.028684	 0.078235	 0.132941	 -0.320069	 0.071741	 0.027946	 -0.156314	 0.984702	 1
1495573458.918	 0	 0.075513	 -0.032111	 -0.007434	 0.079131	 0.131402	 -0.320312	 0.071057	 0.028503	 -0.156440	 0.984716	 1
1495573458.928	 0	 0.006076	 -0.093652	 -0.008554	 0.078350	 0.131619	 -0.320418	 0.071104	 0.028097	 -0.156514	 0.984712	 1
1495573458.938	 0	 -0.056708	 -0.141500	 -0.030851	 0.077097	 0.131189	 -0.320610	 0.070797	 0.027508	 -0.156664	 0.984727	 1
1495573458.948	 0	 -0.119233	 -0.172455	 -0.074319	 0.075517	 0.130111	 -0.321167	 0.070151	 0.026798	 -0.157020	 0.984736	 1
