% Gyrometer data recorded with 'snsrlog'
% 
% 
% Label description:
% 	 0: Default Label
% 	 1: pick up phone
% 
% Column description:
% 	 1: Seconds.milliseconds since 1970
% 	 2: Number of skipped measurements
% 	 3: Gyro X
% 	 4: Gyro Y
% 	 5: Gyro Z
% 	 6: Roll of the device
% 	 7: Pitch of the device
% 	 8: Yaw of the device
% 	 9: Quaternion X
% 	 10: Quaternion Y
% 	 11: Quaternion Z
% 	 12: Quaternion W
% 	 13: Label used for the current sample
% 
% 
1495573498.265	 0	 0.002112	 -0.000241	 0.007482	 0.020347	 -0.011387	 0.000957	 -0.005698	 0.010171	 0.000421	 0.999932	 1
1495573498.275	 0	 -0.001079	 -0.000242	 0.006396	 0.020357	 -0.011562	 0.001021	 -0.005786	 0.010175	 0.000452	 0.999931	 1
1495573498.285	 0	 -0.000020	 0.001882	 0.007497	 0.020094	 -0.011556	 0.001097	 -0.005783	 0.010043	 0.000490	 0.999933	 1
1495573498.295	 0	 -0.001094	 -0.001305	 0.007452	 0.020103	 -0.011634	 0.001171	 -0.005822	 0.010048	 0.000527	 0.999932	 1
1495573498.305	 0	 -0.002161	 0.001886	 0.007486	 0.020096	 -0.011873	 0.001245	 -0.005943	 0.010044	 0.000563	 0.999932	 1
1495573498.315	 0	 0.001044	 0.000811	 0.006420	 0.020100	 -0.012018	 0.001314	 -0.006015	 0.010046	 0.000596	 0.999931	 1
1495573498.325	 0	 0.003144	 -0.002364	 0.008530	 0.020286	 -0.012143	 0.001390	 -0.006078	 0.010138	 0.000633	 0.999930	 1
1495573498.335	 0	 -0.000026	 0.000824	 0.006415	 0.020442	 -0.012102	 0.001455	 -0.006058	 0.010216	 0.000665	 0.999929	 1
1495573498.345	 0	 0.002110	 -0.001297	 0.006400	 0.020677	 -0.011924	 0.001521	 -0.005970	 0.010333	 0.000699	 0.999929	 1
1495573498.355	 0	 -0.000006	 0.001898	 0.005359	 0.020871	 -0.011920	 0.001576	 -0.005968	 0.010431	 0.000726	 0.999928	 1
1495573498.365	 0	 -0.002153	 0.000850	 0.006404	 0.020987	 -0.011892	 0.001646	 -0.005954	 0.010488	 0.000760	 0.999927	 1
1495573498.375	 0	 -0.000021	 -0.000216	 0.006402	 0.021007	 -0.011889	 0.001704	 -0.005953	 0.010498	 0.000789	 0.999927	 1
1495573498.385	 0	 -0.001074	 -0.001287	 0.005315	 0.020925	 -0.011814	 0.001750	 -0.005916	 0.010457	 0.000813	 0.999927	 1
1495573498.395	 0	 0.002114	 -0.000228	 0.006413	 0.020831	 -0.011831	 0.001812	 -0.005924	 0.010410	 0.000845	 0.999928	 1
1495573498.405	 0	 -0.000033	 -0.001290	 0.007458	 0.020663	 -0.011842	 0.001884	 -0.005930	 0.010325	 0.000881	 0.999929	 1
1495573498.415	 0	 -0.000018	 0.000825	 0.006415	 0.020575	 -0.011826	 0.001946	 -0.005923	 0.010281	 0.000912	 0.999929	 1
1495573498.425	 0	 -0.000021	 -0.001308	 0.006389	 0.020492	 -0.011827	 0.002009	 -0.005923	 0.010240	 0.000944	 0.999930	 1
1495573498.435	 0	 0.001023	 -0.001305	 0.008532	 0.020362	 -0.011814	 0.002092	 -0.005917	 0.010174	 0.000986	 0.999930	 1
1495573498.445	 0	 -0.000040	 -0.000242	 0.008540	 0.020337	 -0.011768	 0.002176	 -0.005895	 0.010162	 0.001028	 0.999930	 1
1495573498.455	 0	 0.001056	 -0.000254	 0.006408	 0.020367	 -0.011662	 0.002244	 -0.005842	 0.010177	 0.001063	 0.999931	 1
1495573498.465	 0	 -0.000014	 0.002952	 0.007510	 0.020485	 -0.011616	 0.002320	 -0.005820	 0.010236	 0.001100	 0.999930	 1
1495573498.475	 0	 -0.000032	 -0.000228	 0.008540	 0.020539	 -0.011636	 0.002399	 -0.005830	 0.010262	 0.001140	 0.999930	 1
1495573498.485	 0	 0.002119	 -0.000239	 0.006413	 0.020580	 -0.011674	 0.002468	 -0.005849	 0.010282	 0.001174	 0.999929	 1
1495573498.495	 0	 0.001046	 -0.001292	 0.006395	 0.020677	 -0.011713	 0.002533	 -0.005869	 0.010331	 0.001206	 0.999929	 1
1495573498.505	 0	 -0.000013	 0.000840	 0.006415	 0.020726	 -0.011677	 0.002596	 -0.005851	 0.010355	 0.001238	 0.999928	 1
1495573498.515	 0	 -0.000016	 -0.001288	 0.006389	 0.020699	 -0.011660	 0.002659	 -0.005843	 0.010341	 0.001269	 0.999929	 1
1495573498.525	 0	 0.003172	 -0.002353	 0.007462	 0.020663	 -0.011625	 0.002733	 -0.005826	 0.010323	 0.001306	 0.999929	 1
1495573498.535	 0	 0.001044	 0.000842	 0.007490	 0.020681	 -0.011609	 0.002806	 -0.005819	 0.010332	 0.001343	 0.999929	 1
1495573498.545	 0	 0.002103	 -0.001293	 0.007469	 0.020615	 -0.011640	 0.002879	 -0.005835	 0.010299	 0.001380	 0.999929	 1
1495573498.555	 0	 -0.000039	 -0.000228	 0.008540	 0.020544	 -0.011624	 0.002958	 -0.005827	 0.010263	 0.001419	 0.999929	 1
1495573498.565	 0	 0.001042	 0.000829	 0.007490	 0.020570	 -0.011612	 0.003032	 -0.005821	 0.010276	 0.001456	 0.999929	 1
1495573498.575	 0	 0.001043	 -0.001300	 0.007463	 0.020533	 -0.011551	 0.003105	 -0.005791	 0.010257	 0.001493	 0.999930	 1
1495573498.585	 0	 0.001032	 -0.001290	 0.008533	 0.020565	 -0.011540	 0.003179	 -0.005786	 0.010273	 0.001530	 0.999929	 1
1495573498.595	 0	 -0.000004	 0.001897	 0.006428	 0.020634	 -0.011517	 0.003249	 -0.005775	 0.010307	 0.001565	 0.999929	 1
1495573498.605	 0	 -0.000007	 -0.000224	 0.006402	 0.020678	 -0.011510	 0.003313	 -0.005772	 0.010329	 0.001597	 0.999929	 1
1495573498.615	 0	 -0.000014	 -0.001277	 0.007458	 0.020706	 -0.011452	 0.003381	 -0.005743	 0.010343	 0.001631	 0.999929	 1
1495573498.625	 0	 0.001075	 0.000841	 0.006421	 0.020705	 -0.011388	 0.003439	 -0.005711	 0.010342	 0.001661	 0.999929	 1
1495573498.635	 0	 0.001066	 0.000844	 0.006421	 0.020731	 -0.011440	 0.003503	 -0.005738	 0.010355	 0.001692	 0.999928	 1
1495573498.645	 0	 -0.002134	 0.002979	 0.006430	 0.020765	 -0.011475	 0.003567	 -0.005756	 0.010372	 0.001724	 0.999928	 1
1495573498.655	 0	 0.000004	 0.000841	 0.005346	 0.020748	 -0.011499	 0.003619	 -0.005768	 0.010363	 0.001750	 0.999928	 1
1495573498.665	 0	 -0.001082	 0.001912	 0.007492	 0.020728	 -0.011488	 0.003688	 -0.005763	 0.010353	 0.001784	 0.999928	 1
1495573498.675	 0	 0.003180	 -0.002355	 0.007462	 0.020669	 -0.011447	 0.003761	 -0.005743	 0.010324	 0.001821	 0.999929	 1
1495573498.685	 0	 -0.003202	 0.004032	 0.007507	 0.020667	 -0.011418	 0.003829	 -0.005728	 0.010322	 0.001856	 0.999929	 1
1495573498.695	 0	 0.002132	 -0.001292	 0.007470	 0.020675	 -0.011346	 0.003898	 -0.005693	 0.010326	 0.001890	 0.999929	 1
1495573498.705	 0	 0.001085	 -0.000232	 0.006408	 0.020681	 -0.011297	 0.003966	 -0.005669	 0.010329	 0.001925	 0.999929	 1
1495573498.715	 0	 0.002162	 -0.000235	 0.006414	 0.020678	 -0.011214	 0.004035	 -0.005627	 0.010327	 0.001959	 0.999929	 1
1495573498.725	 0	 0.001085	 -0.000218	 0.007477	 0.020722	 -0.011192	 0.004104	 -0.005617	 0.010349	 0.001994	 0.999929	 1
1495573498.735	 0	 0.002143	 -0.002340	 0.007457	 0.020745	 -0.011200	 0.004177	 -0.005621	 0.010360	 0.002031	 0.999928	 1
1495573498.745	 0	 0.003227	 0.000838	 0.006433	 0.020727	 -0.011179	 0.004235	 -0.005611	 0.010352	 0.002059	 0.999929	 1
1495573498.755	 0	 0.001063	 -0.001273	 0.007464	 0.020760	 -0.011247	 0.004304	 -0.005645	 0.010367	 0.002093	 0.999928	 1
1495573498.765	 0	 0.001068	 -0.001272	 0.006395	 0.020789	 -0.011271	 0.004367	 -0.005658	 0.010382	 0.002125	 0.999928	 1
1495573498.775	 0	 0.001066	 0.000844	 0.005352	 0.020773	 -0.011363	 0.004415	 -0.005704	 0.010373	 0.002148	 0.999928	 1
1495573498.785	 0	 -0.000026	 0.000856	 0.006415	 0.020808	 -0.011423	 0.004473	 -0.005734	 0.010391	 0.002177	 0.999927	 1
1495573498.795	 0	 0.001047	 -0.000212	 0.005338	 0.020820	 -0.011437	 0.004531	 -0.005742	 0.010397	 0.002206	 0.999927	 1
1495573498.805	 0	 -0.001108	 0.000857	 0.006409	 0.020816	 -0.011508	 0.004600	 -0.005778	 0.010394	 0.002240	 0.999927	 1
1495573498.815	 0	 0.001027	 0.001918	 0.006433	 0.020841	 -0.011501	 0.004663	 -0.005774	 0.010407	 0.002272	 0.999927	 1
1495573498.825	 0	 0.001028	 0.000859	 0.006420	 0.020873	 -0.011476	 0.004727	 -0.005762	 0.010422	 0.002303	 0.999926	 1
1495573498.835	 0	 -0.000017	 0.002980	 0.005372	 0.020882	 -0.011440	 0.004785	 -0.005745	 0.010427	 0.002333	 0.999926	 1
1495573498.845	 0	 0.002079	 -0.002327	 0.007456	 0.020872	 -0.011450	 0.004858	 -0.005750	 0.010421	 0.002369	 0.999926	 1
1495573498.855	 0	 0.001033	 0.000857	 0.006420	 0.020861	 -0.011420	 0.004927	 -0.005735	 0.010416	 0.002404	 0.999926	 1
1495573498.865	 0	 0.001040	 -0.000217	 0.006407	 0.020814	 -0.011366	 0.004989	 -0.005709	 0.010392	 0.002435	 0.999927	 1
1495573498.875	 0	 -0.001095	 -0.000218	 0.007465	 0.020756	 -0.011321	 0.005057	 -0.005686	 0.010364	 0.002470	 0.999927	 1
1495573498.885	 0	 -0.000038	 -0.000218	 0.008540	 0.020736	 -0.011310	 0.005136	 -0.005681	 0.010353	 0.002509	 0.999927	 1
1495573498.895	 0	 -0.000024	 0.000840	 0.007484	 0.020750	 -0.011305	 0.005205	 -0.005679	 0.010360	 0.002544	 0.999927	 1
1495573498.905	 0	 -0.000035	 -0.000210	 0.007471	 0.020806	 -0.011339	 0.005285	 -0.005697	 0.010388	 0.002583	 0.999926	 1
1495573498.915	 0	 -0.002164	 0.001923	 0.006416	 0.020853	 -0.011395	 0.005349	 -0.005725	 0.010411	 0.002615	 0.999926	 1
1495573498.925	 0	 0.003125	 -0.003393	 0.008517	 0.020828	 -0.011434	 0.005433	 -0.005745	 0.010398	 0.002657	 0.999926	 1
1495573498.935	 0	 0.001000	 -0.000204	 0.007476	 0.020837	 -0.011460	 0.005506	 -0.005758	 0.010402	 0.002693	 0.999926	 1
1495573498.945	 0	 -0.001145	 0.001931	 0.007490	 0.020869	 -0.011531	 0.005576	 -0.005794	 0.010418	 0.002727	 0.999925	 1
1495573498.955	 0	 -0.000075	 -0.000201	 0.006401	 0.020882	 -0.011547	 0.005639	 -0.005802	 0.010424	 0.002759	 0.999925	 1
1495573498.965	 0	 0.000985	 -0.000203	 0.006406	 0.020875	 -0.011574	 0.005702	 -0.005816	 0.010420	 0.002790	 0.999925	 1
1495573498.975	 0	 0.000986	 0.001929	 0.006432	 0.020910	 -0.011569	 0.005760	 -0.005814	 0.010438	 0.002820	 0.999925	 1
1495573498.985	 0	 -0.000071	 0.000864	 0.005345	 0.020932	 -0.011572	 0.005819	 -0.005816	 0.010449	 0.002849	 0.999924	 1
1495573498.995	 0	 -0.000088	 -0.001252	 0.006388	 0.020944	 -0.011579	 0.005888	 -0.005820	 0.010454	 0.002883	 0.999924	 1
1495573499.005	 0	 0.000986	 0.000864	 0.006419	 0.020913	 -0.011555	 0.005950	 -0.005808	 0.010439	 0.002915	 0.999924	 1
1495573499.015	 0	 0.000993	 0.000864	 0.006419	 0.020922	 -0.011512	 0.006024	 -0.005787	 0.010443	 0.002952	 0.999924	 1
1495573499.025	 0	 0.000991	 0.000859	 0.007488	 0.020877	 -0.011464	 0.006092	 -0.005763	 0.010420	 0.002986	 0.999925	 1
1495573499.035	 0	 0.003116	 -0.002337	 0.007460	 0.020854	 -0.011444	 0.006160	 -0.005754	 0.010409	 0.003020	 0.999925	 1
1495573499.045	 0	 0.000977	 0.001919	 0.008570	 0.020821	 -0.011430	 0.006233	 -0.005747	 0.010392	 0.003057	 0.999925	 1
1495573499.055	 0	 -0.000072	 0.000853	 0.007483	 0.020818	 -0.011385	 0.006302	 -0.005725	 0.010391	 0.003091	 0.999925	 1
1495573499.065	 0	 0.002055	 -0.001276	 0.007468	 0.020818	 -0.011379	 0.006381	 -0.005722	 0.010390	 0.003131	 0.999925	 1
1495573499.075	 0	 -0.011786	 -0.006592	 0.004123	 0.020758	 -0.011449	 0.006428	 -0.005758	 0.010360	 0.003155	 0.999925	 1
1495573499.085	 0	 -0.005380	 -0.004474	 0.004183	 0.020707	 -0.011532	 0.006493	 -0.005799	 0.010334	 0.003186	 0.999925	 1
1495573499.095	 0	 -0.007457	 -0.004486	 -0.001173	 0.020728	 -0.011598	 0.006515	 -0.005832	 0.010345	 0.003197	 0.999924	 1
1495573499.105	 0	 0.002069	 -0.004303	 -0.182846	 0.021183	 -0.011192	 0.005310	 -0.005624	 0.010576	 0.002595	 0.999925	 1
1495573499.115	 0	 0.006213	 0.002001	 -0.448920	 0.022441	 -0.010397	 0.001550	 -0.005207	 0.011216	 0.000716	 0.999923	 1
1495573499.125	 0	 0.008098	 0.005813	 -0.723592	 0.022413	 -0.010469	 -0.004925	 -0.005207	 0.011219	 -0.002521	 0.999920	 1
1495573499.135	 0	 0.009980	 0.007498	 -0.998290	 0.022384	 -0.010573	 -0.014122	 -0.005207	 0.011229	 -0.007120	 0.999898	 1
1495573499.145	 0	 0.010592	 0.003969	 -1.254885	 0.022311	 -0.010734	 -0.025909	 -0.005221	 0.011224	 -0.013013	 0.999839	 1
1495573499.155	 0	 0.011802	 0.008127	 -1.466486	 0.022222	 -0.010934	 -0.039921	 -0.005244	 0.011217	 -0.020019	 0.999723	 1
1495573499.165	 0	 0.007015	 0.004586	 -1.523081	 0.022120	 -0.011189	 -0.055073	 -0.005288	 0.011209	 -0.027593	 0.999542	 1
1495573499.175	 0	 -0.008083	 0.000487	 -1.110584	 0.022013	 -0.011501	 -0.067470	 -0.005376	 0.011194	 -0.033789	 0.999352	 1
1495573499.185	 0	 -0.008373	 -0.004590	 -0.288601	 0.021918	 -0.011710	 -0.072229	 -0.005455	 0.011163	 -0.036168	 0.999268	 1
1495573499.195	 0	 -0.039918	 -0.008976	 0.066081	 0.021833	 -0.011981	 -0.072108	 -0.005593	 0.011125	 -0.036109	 0.999270	 1
1495573499.205	 0	 -0.067126	 -0.024092	 0.014441	 0.021633	 -0.012591	 -0.071656	 -0.005903	 0.011035	 -0.035885	 0.999278	 1
1495573499.215	 0	 -0.048929	 -0.006091	 -0.187280	 0.021512	 -0.013187	 -0.072936	 -0.006197	 0.010989	 -0.036528	 0.999253	 1
1495573499.225	 0	 -0.041918	 -0.003246	 -0.442695	 0.021453	 -0.013642	 -0.076740	 -0.006404	 0.010980	 -0.038430	 0.999180	 1
1495573499.235	 0	 -0.089593	 0.004121	 -0.471718	 0.021384	 -0.014534	 -0.081482	 -0.006825	 0.010979	 -0.040804	 0.999084	 1
1495573499.245	 0	 -0.025570	 0.018916	 -0.272369	 0.021564	 -0.014950	 -0.084649	 -0.007012	 0.011088	 -0.042389	 0.999015	 1
1495573499.255	 0	 -0.014961	 0.012022	 -0.168706	 0.021665	 -0.015168	 -0.086509	 -0.007108	 0.011150	 -0.043320	 0.998974	 1
1495573499.265	 0	 -0.018373	 0.008943	 -0.149520	 0.021741	 -0.015366	 -0.088011	 -0.007197	 0.011197	 -0.044071	 0.998940	 1
1495573499.275	 0	 -0.036507	 0.007912	 -0.149629	 0.021822	 -0.015707	 -0.089504	 -0.007357	 0.011251	 -0.044819	 0.998905	 1
1495573499.285	 0	 -0.076945	 0.001551	 -0.159540	 0.021823	 -0.016396	 -0.091025	 -0.007693	 0.011273	 -0.045582	 0.998867	 1
1495573499.295	 0	 -0.124641	 0.003609	 -0.187560	 0.021808	 -0.017542	 -0.092786	 -0.008255	 0.011299	 -0.046467	 0.998822	 1
1495573499.305	 0	 -0.171577	 0.000502	 -0.187845	 0.021779	 -0.019163	 -0.094646	 -0.009055	 0.011330	 -0.047404	 0.998770	 1
1495573499.315	 0	 -0.194090	 0.000599	 -0.177272	 0.021750	 -0.021099	 -0.096368	 -0.010013	 0.011370	 -0.048274	 0.998719	 1
1495573499.325	 0	 -0.198836	 0.014685	 -0.130090	 0.021848	 -0.023074	 -0.097776	 -0.010989	 0.011474	 -0.048988	 0.998673	 1
1495573499.335	 0	 -0.188150	 0.038610	 -0.028187	 0.022162	 -0.024981	 -0.098326	 -0.011930	 0.011680	 -0.049275	 0.998646	 1
1495573499.345	 0	 -0.144370	 0.177384	 0.091334	 0.023517	 -0.026519	 -0.097657	 -0.012668	 0.012390	 -0.048957	 0.998644	 1
1495573499.355	 0	 -0.091974	 0.318228	 0.203442	 0.026378	 -0.027515	 -0.095942	 -0.013107	 0.013832	 -0.048125	 0.998660	 1
1495573499.365	 0	 -0.079703	 0.395634	 0.365873	 0.030200	 -0.028245	 -0.092725	 -0.013405	 0.015736	 -0.046549	 0.998702	 1
1495573499.375	 0	 -0.037409	 0.504829	 0.519230	 0.035091	 -0.028539	 -0.087918	 -0.013482	 0.018153	 -0.044184	 0.998768	 1
1495573499.385	 0	 0.001179	 0.560541	 0.610980	 0.040649	 -0.028404	 -0.082040	 -0.013353	 0.020886	 -0.041284	 0.998840	 1
1495573499.395	 0	 0.031064	 0.663695	 0.627368	 0.047068	 -0.027899	 -0.075827	 -0.013043	 0.024041	 -0.038218	 0.998895	 1
1495573499.405	 0	 0.034428	 0.764150	 0.530272	 0.054569	 -0.027271	 -0.070307	 -0.012663	 0.027741	 -0.035501	 0.998904	 1
1495573499.415	 0	 0.031890	 0.815413	 0.378023	 0.062702	 -0.026690	 -0.066256	 -0.012293	 0.031768	 -0.033521	 0.998857	 1
1495573499.425	 0	 0.029034	 0.809378	 0.245380	 0.070792	 -0.026240	 -0.063524	 -0.011981	 0.035784	 -0.032198	 0.998769	 1
1495573499.435	 0	 0.064062	 0.654023	 0.035207	 0.077803	 -0.025631	 -0.062573	 -0.011582	 0.039270	 -0.031753	 0.998657	 1
1495573499.445	 0	 0.056223	 0.533961	 -0.150171	 0.083191	 -0.025081	 -0.063808	 -0.011196	 0.041959	 -0.032390	 0.998531	 1
1495573499.455	 0	 0.030435	 0.700621	 -0.202781	 0.089481	 -0.024932	 -0.065667	 -0.010978	 0.045107	 -0.033349	 0.998365	 1
1495573499.465	 0	 0.051916	 1.126119	 -0.340692	 0.099427	 -0.024764	 -0.068652	 -0.010654	 0.050084	 -0.034889	 0.998079	 1
1495573499.475	 0	 0.076002	 1.624794	 -0.509762	 0.114121	 -0.024592	 -0.073349	 -0.010176	 0.057437	 -0.037305	 0.997600	 1
1495573499.485	 0	 0.128751	 2.111782	 -0.668135	 0.133721	 -0.024222	 -0.079602	 -0.009416	 0.067234	 -0.040507	 0.996870	 1
1495573499.495	 0	 0.156030	 2.515207	 -0.952737	 0.157374	 -0.024023	 -0.088401	 -0.008489	 0.079052	 -0.044989	 0.995819	 1
1495573499.505	 0	 0.215415	 3.118546	 -1.411100	 0.186161	 -0.024244	 -0.101147	 -0.007355	 0.093431	 -0.051455	 0.994268	 1
1495573499.515	 0	 0.360147	 3.937145	 -2.330311	 0.222674	 -0.025337	 -0.121997	 -0.005794	 0.111659	 -0.061983	 0.991795	 1
1495573499.525	 0	 0.555197	 4.522027	 -3.009465	 0.265450	 -0.027387	 -0.150555	 -0.003583	 0.132969	 -0.076345	 0.988169	 1
1495573499.535	 0	 0.748248	 4.998356	 -3.322232	 0.312684	 -0.029948	 -0.183790	 -0.000442	 0.156389	 -0.092958	 0.983311	 1
1495573499.545	 0	 0.518609	 4.840939	 -3.022850	 0.360788	 -0.034439	 -0.215016	 0.002407	 0.180173	 -0.108616	 0.977617	 1
1495573499.555	 0	 0.117249	 3.339500	 -1.667600	 0.397546	 -0.040175	 -0.235103	 0.003600	 0.198373	 -0.118888	 0.972883	 1
1495573499.565	 0	 -0.369929	 0.643491	 -0.477111	 0.410984	 -0.044706	 -0.239694	 0.002666	 0.205151	 -0.121544	 0.971151	 1
1495573499.575	 0	 -0.794098	 -1.530911	 -0.694155	 0.399643	 -0.053797	 -0.243136	 -0.002103	 0.200155	 -0.124112	 0.971869	 1
1495573499.585	 0	 -0.979673	 -1.603944	 -0.112364	 0.383374	 -0.063389	 -0.241984	 -0.007898	 0.192782	 -0.124420	 0.973289	 1
1495573499.595	 0	 -1.105653	 -1.628633	 0.192399	 0.367939	 -0.072854	 -0.236871	 -0.013953	 0.185762	 -0.122703	 0.974803	 1
1495573499.605	 0	 -1.228692	 -2.127257	 0.338500	 0.349045	 -0.082784	 -0.229816	 -0.020591	 0.177017	 -0.119955	 0.976653	 1
1495573499.615	 0	 -1.423763	 -2.734026	 0.319341	 0.323783	 -0.094604	 -0.222250	 -0.028523	 0.165187	 -0.116898	 0.978894	 1
1495573499.625	 0	 -1.383442	 -2.362647	 0.205451	 0.299628	 -0.107168	 -0.215685	 -0.036609	 0.153874	 -0.114223	 0.980783	 1
1495573499.636	 0	 -1.137539	 -1.472757	 0.109693	 0.283212	 -0.118186	 -0.210930	 -0.043312	 0.146259	 -0.112323	 0.981894	 1
1495573499.645	 0	 -0.785936	 -0.436807	 -0.069235	 0.276563	 -0.126612	 -0.208757	 -0.047986	 0.143345	 -0.111661	 0.982182	 1
1495573499.655	 0	 -0.372482	 0.487856	 -0.166891	 0.279272	 -0.131574	 -0.208919	 -0.050264	 0.144913	 -0.112132	 0.981784	 1
1495573499.666	 0	 0.211917	 0.615117	 -0.032906	 0.285548	 -0.131318	 -0.209854	 -0.049717	 0.148004	 -0.112730	 0.981282	 1
1495573499.676	 0	 0.937259	 0.128644	 0.278157	 0.288126	 -0.123609	 -0.210113	 -0.045762	 0.148911	 -0.112398	 0.981376	 1
1495573499.686	 0	 1.598485	 -0.466193	 0.581140	 0.285139	 -0.108518	 -0.209329	 -0.038566	 0.146710	 -0.110925	 0.982184	 1
1495573499.696	 0	 2.051312	 -1.262633	 0.885898	 0.274983	 -0.087732	 -0.207002	 -0.029059	 0.140682	 -0.108221	 0.983693	 1
1495573499.706	 0	 2.213127	 -2.100668	 1.265581	 0.256590	 -0.063802	 -0.201567	 -0.018607	 0.130412	 -0.103795	 0.985836	 1
1495573499.716	 0	 2.178232	 -2.726919	 1.624376	 0.231447	 -0.039085	 -0.192016	 -0.008255	 0.116772	 -0.097447	 0.988332	 1
1495573499.726	 0	 2.126430	 -2.909519	 1.847419	 0.203152	 -0.014587	 -0.179148	 0.001844	 0.101641	 -0.089727	 0.990765	 1
1495573499.736	 0	 2.048021	 -2.587228	 1.855235	 0.176614	 0.008976	 -0.164860	 0.011717	 0.087524	 -0.081621	 0.992744	 1
1495573499.746	 0	 2.065017	 -2.037656	 1.660028	 0.154680	 0.031774	 -0.151440	 0.021637	 0.075834	 -0.074188	 0.994121	 1
1495573499.756	 0	 2.309343	 -1.274675	 1.490015	 0.139613	 0.055833	 -0.139755	 0.032645	 0.067608	 -0.067681	 0.994878	 1
1495573499.766	 0	 2.672917	 -0.345252	 1.469121	 0.132990	 0.083098	 -0.128665	 0.045627	 0.063587	 -0.061337	 0.995044	 1
1495573499.776	 0	 3.012769	 0.228938	 1.409538	 0.133399	 0.113734	 -0.118623	 0.060554	 0.063064	 -0.055268	 0.994636	 1
1495573499.786	 0	 3.092848	 0.212226	 1.100819	 0.134701	 0.145536	 -0.111030	 0.076152	 0.062993	 -0.050329	 0.993831	 1
1495573499.796	 0	 2.994757	 0.227773	 0.801179	 0.136238	 0.176400	 -0.106481	 0.091365	 0.063029	 -0.046898	 0.992714	 1
1495573499.806	 0	 2.856182	 0.007683	 0.555091	 0.136582	 0.205481	 -0.104283	 0.105720	 0.062453	 -0.044733	 0.991424	 1
1495573499.816	 0	 2.899605	 -0.213566	 0.545123	 0.134964	 0.234357	 -0.102993	 0.119937	 0.060875	 -0.043131	 0.989974	 1
1495573499.826	 0	 2.919084	 -0.460044	 0.774171	 0.130047	 0.263961	 -0.099840	 0.134370	 0.057780	 -0.040821	 0.988403	 1
1495573499.836	 0	 2.793983	 -0.670310	 1.163250	 0.121987	 0.293055	 -0.092683	 0.148369	 0.053487	 -0.036853	 0.986797	 1
1495573499.846	 0	 2.563188	 -0.925031	 1.553364	 0.109760	 0.320569	 -0.080802	 0.161416	 0.047669	 -0.031065	 0.985245	 1
1495573499.856	 0	 2.211159	 -1.060025	 1.830997	 0.094204	 0.345053	 -0.064819	 0.172895	 0.040805	 -0.023808	 0.983807	 1
1495573499.866	 0	 1.848269	 -1.272603	 1.914136	 0.076032	 0.365691	 -0.046503	 0.182517	 0.033139	 -0.015936	 0.982515	 1
1495573499.876	 0	 1.682210	 -1.698116	 1.807558	 0.053583	 0.383737	 -0.028120	 0.190976	 0.023614	 -0.008689	 0.981272	 1
1495573499.886	 0	 1.766877	 -1.904384	 1.634437	 0.028583	 0.401497	 -0.010991	 0.199456	 0.012908	 -0.002535	 0.979818	 1
1495573499.896	 0	 2.017739	 -1.946974	 1.509096	 0.002900	 0.421044	 0.005217	 0.208966	 0.001963	 0.002854	 0.977917	 1
1495573499.906	 0	 2.248403	 -1.991147	 1.476630	 -0.023666	 0.442657	 0.021644	 0.219623	 -0.009168	 0.007959	 0.975509	 1
1495573499.916	 0	 2.328182	 -1.767197	 1.437037	 -0.049307	 0.465076	 0.038525	 0.230797	 -0.019546	 0.013057	 0.972718	 1
1495573499.926	 0	 2.246007	 -1.591455	 1.471899	 -0.073571	 0.486702	 0.056295	 0.241703	 -0.028903	 0.018438	 0.969745	 1
1495573499.936	 0	 2.027382	 -1.628307	 1.660574	 -0.098748	 0.505855	 0.076232	 0.251574	 -0.038225	 0.024508	 0.966772	 1
1495573499.946	 0	 1.701399	 -2.057263	 1.844944	 -0.128917	 0.521443	 0.098851	 0.260003	 -0.049452	 0.031053	 0.963841	 1
1495573499.956	 0	 1.222568	 -2.866729	 1.991773	 -0.167455	 0.531814	 0.123255	 0.266337	 -0.064410	 0.037281	 0.961003	 1
1495573499.966	 0	 0.716295	 -3.243732	 2.287005	 -0.212650	 0.535905	 0.149869	 0.270185	 -0.082341	 0.043767	 0.958282	 1
1495573499.976	 0	 0.112912	 -2.962933	 2.702038	 -0.258198	 0.532457	 0.179617	 0.270993	 -0.100304	 0.052074	 0.955924	 1
1495573499.986	 0	 -0.318684	 -2.041934	 2.826512	 -0.296244	 0.522577	 0.209921	 0.269028	 -0.115019	 0.062189	 0.954215	 1
1495573499.996	 0	 -0.322029	 -0.672421	 2.682944	 -0.320586	 0.511104	 0.238219	 0.266121	 -0.123678	 0.073436	 0.953148	 1
1495573500.006	 0	 -0.082582	 1.343290	 2.591340	 -0.325920	 0.501533	 0.265653	 0.263516	 -0.123353	 0.086690	 0.952800	 1
1495573500.016	 0	 0.146239	 3.780897	 2.470648	 -0.307688	 0.494607	 0.292772	 0.260984	 -0.111703	 0.102645	 0.953349	 1
1495573500.026	 0	 0.348626	 6.219497	 2.328449	 -0.264392	 0.490862	 0.319080	 0.258108	 -0.087975	 0.121139	 0.954445	 1
1495573500.036	 0	 0.575941	 7.883219	 2.212153	 -0.202002	 0.490697	 0.344804	 0.254853	 -0.054904	 0.141436	 0.955003	 1
1495573500.046	 0	 0.844726	 8.787199	 2.173344	 -0.129162	 0.494714	 0.370346	 0.251675	 -0.016517	 0.162610	 0.953910	 1
1495573500.056	 0	 1.048088	 9.328103	 2.203498	 -0.050076	 0.502758	 0.395922	 0.248575	 0.025129	 0.184324	 0.950581	 1
1495573500.066	 0	 -0.376852	 5.180256	 2.756578	 -0.002081	 0.502303	 0.425367	 0.243132	 0.051473	 0.204208	 0.946856	 1
1495573500.076	 0	 -1.479626	 1.220162	 3.339314	 0.004189	 0.490375	 0.461225	 0.235847	 0.057462	 0.222232	 0.944292	 1
1495573500.086	 0	 -1.805546	 -1.540715	 3.605187	 -0.023924	 0.472604	 0.500874	 0.229672	 0.046748	 0.238210	 0.942508	 1
1495573500.096	 0	 -1.704568	 -2.366990	 3.393547	 -0.063241	 0.453904	 0.538411	 0.224989	 0.030120	 0.252158	 0.940685	 1
1495573500.106	 0	 -1.566325	 -1.810573	 2.933954	 -0.096798	 0.435701	 0.570364	 0.220448	 0.015405	 0.264327	 0.938774	 1
1495573500.116	 0	 -1.539816	 -0.537441	 2.476151	 -0.116353	 0.417880	 0.596509	 0.214644	 0.006481	 0.275447	 0.937024	 1
1495573500.126	 0	 -1.596466	 0.828393	 2.030805	 -0.119756	 0.399786	 0.617442	 0.206659	 0.004346	 0.285936	 0.935689	 1
1495573500.136	 0	 -1.515789	 1.706772	 1.526756	 -0.110791	 0.382843	 0.633247	 0.197444	 0.007493	 0.295193	 0.934784	 1
1495573500.146	 0	 -1.266964	 1.642264	 0.891231	 -0.097388	 0.368566	 0.642981	 0.188767	 0.012433	 0.301800	 0.934414	 1
1495573500.156	 0	 -0.886134	 1.264269	 0.125347	 -0.084980	 0.358551	 0.645432	 0.182214	 0.016862	 0.304595	 0.934738	 1
1495573500.166	 0	 -0.500050	 1.008670	 -0.615564	 -0.072591	 0.353081	 0.640290	 0.177834	 0.021325	 0.303560	 0.935827	 1
1495573500.176	 0	 -0.181947	 1.144115	 -1.210858	 -0.058034	 0.351205	 0.628854	 0.174902	 0.026841	 0.299567	 0.937523	 1
1495573500.186	 0	 0.141942	 1.766151	 -1.663323	 -0.036668	 0.352519	 0.612490	 0.172603	 0.035646	 0.293695	 0.939511	 1
1495573500.196	 0	 0.555007	 2.515935	 -2.053889	 -0.006534	 0.357296	 0.591957	 0.170909	 0.048755	 0.286477	 0.941458	 1
1495573500.206	 0	 1.150435	 3.185086	 -2.355758	 0.032214	 0.366826	 0.567537	 0.170636	 0.066260	 0.278064	 0.942960	 1
1495573500.216	 0	 1.805654	 3.096541	 -2.199461	 0.072672	 0.381951	 0.542430	 0.173202	 0.085183	 0.269501	 0.943458	 1
1495573500.226	 0	 2.122549	 2.570386	 -1.306302	 0.106837	 0.400957	 0.523630	 0.178535	 0.102011	 0.263558	 0.942473	 1
1495573500.236	 0	 2.240307	 1.771539	 0.005781	 0.128789	 0.422271	 0.517327	 0.186084	 0.114323	 0.262627	 0.939856	 1
1495573500.246	 0	 2.644023	 1.396140	 1.085111	 0.140956	 0.448068	 0.522725	 0.196345	 0.123592	 0.266427	 0.935516	 1
1495573500.256	 0	 3.300422	 0.958585	 1.766279	 0.145932	 0.481044	 0.535529	 0.210377	 0.131136	 0.273023	 0.929518	 1
1495573500.266	 0	 3.778142	 1.009428	 1.888075	 0.147994	 0.519787	 0.550495	 0.227209	 0.138409	 0.280222	 0.922331	 1
1495573500.276	 0	 3.980768	 1.588472	 1.894106	 0.154765	 0.561133	 0.565111	 0.244413	 0.148309	 0.287664	 0.914066	 1
1495573500.286	 0	 4.118361	 1.942052	 2.056307	 0.164572	 0.604159	 0.580917	 0.261606	 0.160099	 0.295927	 0.904631	 1
1495573500.296	 0	 4.320485	 2.031375	 2.321436	 0.173904	 0.649499	 0.599201	 0.279415	 0.172452	 0.305130	 0.893915	 1
1495573500.306	 0	 4.486637	 1.933877	 2.625775	 0.179629	 0.697281	 0.621088	 0.298210	 0.184236	 0.315211	 0.881913	 1
1495573500.316	 0	 4.505597	 1.875464	 2.836817	 0.181503	 0.746117	 0.646551	 0.317354	 0.195327	 0.325926	 0.868853	 1
1495573500.326	 0	 4.433165	 1.740426	 3.002609	 0.178771	 0.794691	 0.675733	 0.336352	 0.205418	 0.337021	 0.855037	 1
1495573500.336	 0	 4.363296	 1.647728	 3.135796	 0.171009	 0.842697	 0.708922	 0.355116	 0.214523	 0.348328	 0.840560	 1
1495573500.346	 0	 4.284815	 1.608289	 3.285625	 0.157837	 0.889977	 0.747093	 0.373549	 0.222842	 0.359952	 0.825371	 1
1495573500.356	 0	 4.287734	 1.656855	 3.419859	 0.139254	 0.936793	 0.791076	 0.391671	 0.230811	 0.371955	 0.809302	 1
1495573500.366	 0	 4.387873	 1.809450	 3.558018	 0.115090	 0.983988	 0.841811	 0.409728	 0.238958	 0.384327	 0.792032	 1
1495573500.376	 0	 4.477085	 2.074990	 3.740265	 0.084336	 1.031521	 0.901653	 0.427547	 0.247707	 0.397408	 0.773247	 1
1495573500.386	 0	 4.520470	 2.112357	 3.978266	 0.042080	 1.078536	 0.974357	 0.445214	 0.256290	 0.411157	 0.753027	 1
1495573500.396	 0	 4.594130	 1.861094	 4.127367	 -0.017623	 1.124307	 1.062715	 0.463278	 0.263640	 0.424661	 0.731799	 1
1495573500.406	 0	 4.619742	 1.632808	 4.185633	 -0.098060	 1.167623	 1.169198	 0.481686	 0.269726	 0.437377	 0.709879	 1
1495573500.416	 0	 4.489671	 1.572354	 4.169241	 -0.200101	 1.205889	 1.296057	 0.499510	 0.274988	 0.449535	 0.687597	 1
1495573500.426	 0	 4.243444	 1.616332	 4.161001	 -0.323683	 1.236505	 1.444423	 0.516027	 0.279616	 0.461562	 0.665200	 1
1495573500.436	 0	 3.946653	 1.570172	 4.177045	 -0.467283	 1.257355	 1.612479	 0.531156	 0.283255	 0.473600	 0.642917	 1
1495573500.446	 0	 3.682315	 1.338573	 4.118295	 -0.623946	 1.267854	 1.791407	 0.545365	 0.285513	 0.484993	 0.621161	 1
1495573500.456	 0	 3.381999	 1.100505	 4.031482	 -0.781433	 1.268075	 1.968360	 0.558742	 0.286338	 0.495499	 0.600249	 1
1495573500.466	 0	 3.014445	 0.844488	 3.945164	 -0.926900	 1.258674	 2.130361	 0.571192	 0.285601	 0.505214	 0.580457	 1
1495573500.476	 0	 2.623910	 0.754261	 3.842587	 -1.050476	 1.241472	 2.268515	 0.582398	 0.283586	 0.514491	 0.561863	 1
1495573500.486	 0	 2.325286	 0.689318	 3.727975	 -1.150625	 1.219042	 2.382202	 0.592368	 0.280762	 0.523490	 0.544271	 1
1495573500.496	 0	 2.097836	 0.552040	 3.627816	 -1.231689	 1.193362	 2.475161	 0.601574	 0.277150	 0.531930	 0.527586	 1
1495573500.506	 0	 1.897010	 0.476452	 3.542451	 -1.297125	 1.165543	 2.551195	 0.610124	 0.272896	 0.539912	 0.511636	 1
1495573500.516	 0	 1.736677	 0.352930	 3.452435	 -1.350222	 1.136498	 2.613560	 0.618142	 0.268085	 0.547387	 0.496385	 1
1495573500.526	 0	 1.595991	 0.308951	 3.334636	 -1.393648	 1.107029	 2.665091	 0.625675	 0.262901	 0.554325	 0.481806	 1
1495573500.536	 0	 1.502709	 0.495554	 3.213501	 -1.427804	 1.077757	 2.708466	 0.632209	 0.258045	 0.561348	 0.467561	 1
1495573500.546	 0	 1.450345	 0.686689	 3.156776	 -1.454491	 1.048573	 2.746314	 0.637741	 0.253663	 0.568735	 0.453302	 1
1495573500.556	 0	 1.416860	 0.781122	 3.112861	 -1.475929	 1.019297	 2.780059	 0.642607	 0.249481	 0.576284	 0.438991	 1
1495573500.566	 0	 1.316339	 0.685119	 3.020290	 -1.493780	 0.990426	 2.809679	 0.647141	 0.245182	 0.583448	 0.425068	 1
1495573500.576	 0	 1.080656	 0.417883	 2.869321	 -1.508644	 0.962482	 2.833453	 0.651591	 0.240168	 0.589672	 0.412353	 1
1495573500.586	 0	 0.841656	 0.254450	 2.647986	 -1.520509	 0.936238	 2.851289	 0.655798	 0.234583	 0.594926	 0.401201	 1
1495573500.596	 0	 0.678039	 0.338450	 2.403358	 -1.528341	 0.912226	 2.864914	 0.659119	 0.229294	 0.599932	 0.391240	 1
1495573500.606	 0	 0.538096	 0.437199	 2.141932	 -1.532449	 0.890601	 2.875427	 0.661446	 0.224573	 0.604887	 0.382319	 1
1495573500.616	 0	 0.422677	 0.427371	 1.862200	 -1.534417	 0.871685	 2.883583	 0.663105	 0.220427	 0.609434	 0.374558	 1
1495573500.626	 0	 0.301684	 0.358088	 1.594537	 -1.535263	 0.855390	 2.889524	 0.664385	 0.216659	 0.613343	 0.368050	 1
1495573500.636	 0	 0.253926	 0.364410	 1.374153	 -1.535173	 0.841408	 2.894148	 0.665272	 0.213414	 0.616823	 0.362486	 1
1495573500.646	 0	 0.281134	 0.406106	 1.231564	 -1.534763	 0.829022	 2.898824	 0.665882	 0.210788	 0.620076	 0.357317	 1
1495573500.656	 0	 0.301298	 0.453462	 1.149940	 -1.533943	 0.817590	 2.903758	 0.666234	 0.208642	 0.623295	 0.352285	 1
1495573500.666	 0	 0.299826	 0.398859	 1.078709	 -1.533380	 0.806847	 2.908665	 0.666593	 0.206674	 0.626260	 0.347473	 1
1495573500.676	 0	 0.294409	 0.312177	 0.971788	 -1.533531	 0.797071	 2.913423	 0.667094	 0.204862	 0.628755	 0.343052	 1
1495573500.686	 0	 0.305206	 0.328572	 0.863010	 -1.533738	 0.788390	 2.918158	 0.667506	 0.203411	 0.631006	 0.338957	 1
1495573500.696	 0	 0.273453	 0.409894	 0.754804	 -1.533070	 0.780764	 2.922581	 0.667571	 0.202366	 0.633287	 0.335178	 1
1495573500.706	 0	 0.203295	 0.506184	 0.649787	 -1.530617	 0.774184	 2.925982	 0.667070	 0.201635	 0.635795	 0.331851	 1
1495573500.716	 0	 0.180385	 0.445292	 0.587990	 -1.528121	 0.768031	 2.928935	 0.666555	 0.200901	 0.638156	 0.328786	 1
1495573500.726	 0	 0.219097	 0.363130	 0.544427	 -1.526583	 0.762630	 2.932136	 0.666245	 0.200346	 0.640099	 0.325963	 1
1495573500.736	 0	 0.216631	 0.395747	 0.481744	 -1.525155	 0.757802	 2.935486	 0.665900	 0.200018	 0.641923	 0.323272	 1
1495573500.746	 0	 0.193802	 0.503999	 0.441261	 -1.522451	 0.753468	 2.938444	 0.665135	 0.199932	 0.644016	 0.320727	 1
1495573500.756	 0	 0.179957	 0.520072	 0.447794	 -1.523358	 0.748363	 2.944105	 0.665332	 0.199895	 0.645456	 0.317430	 1
1495573500.766	 0	 0.143100	 0.476268	 0.395752	 -1.520129	 0.744358	 2.946466	 0.664421	 0.199797	 0.647555	 0.315117	 1
1495573500.776	 0	 0.023088	 0.331500	 0.321723	 -1.517137	 0.741035	 2.947512	 0.663651	 0.199457	 0.649251	 0.313460	 1
1495573500.786	 0	 -0.086324	 0.214413	 0.258779	 -1.514337	 0.738291	 2.946801	 0.663061	 0.198701	 0.650512	 0.312573	 1
1495573500.796	 0	 -0.043393	 0.176959	 0.227545	 -1.512052	 0.735929	 2.946146	 0.662594	 0.198016	 0.651549	 0.311837	 1
1495573500.806	 0	 0.069316	 0.166820	 0.159599	 -1.510865	 0.734195	 2.946831	 0.662295	 0.197820	 0.652329	 0.310966	 1
1495573500.816	 0	 0.121367	 0.209920	 0.087711	 -1.509952	 0.733234	 2.948397	 0.661928	 0.198144	 0.653029	 0.310070	 1
1495573500.826	 0	 0.114216	 0.219349	 0.059995	 -1.508869	 0.732671	 2.950037	 0.661462	 0.198657	 0.653731	 0.309255	 1
1495573500.836	 0	 0.095286	 0.137310	 0.020406	 -1.508159	 0.732402	 2.951392	 0.661119	 0.199120	 0.654219	 0.308659	 1
1495573500.846	 0	 0.108551	 -0.015115	 -0.049808	 -1.508826	 0.732773	 2.952749	 0.661169	 0.199596	 0.654148	 0.308395	 1
1495573500.856	 0	 0.110970	 -0.146148	 -0.099507	 -1.510914	 0.733735	 2.954150	 0.661625	 0.200074	 0.653520	 0.308440	 1
1495573500.866	 0	 0.104635	 -0.227040	 -0.119774	 -1.513893	 0.734945	 2.955472	 0.662355	 0.200475	 0.652544	 0.308678	 1
1495573500.876	 0	 0.128119	 -0.210066	 -0.118373	 -1.517121	 0.736203	 2.956983	 0.663140	 0.200916	 0.651507	 0.308896	 1
1495573500.886	 0	 0.194012	 -0.056832	 -0.069112	 -1.519713	 0.737131	 2.959284	 0.663667	 0.201603	 0.650854	 0.308693	 1
1495573500.896	 0	 0.255373	 0.127404	 0.010438	 -1.521011	 0.737355	 2.962509	 0.663743	 0.202550	 0.650885	 0.307844	 1
1495573500.906	 0	 0.279438	 0.227624	 0.071657	 -1.521455	 0.736906	 2.966220	 0.663552	 0.203558	 0.651379	 0.306542	 1
1495573500.916	 0	 0.264183	 0.233135	 0.102644	 -1.521548	 0.736086	 2.969900	 0.663285	 0.204479	 0.652040	 0.305099	 1
1495573500.926	 0	 0.218239	 0.131228	 0.093623	 -1.528818	 0.737091	 2.977595	 0.664766	 0.206276	 0.650640	 0.303651	 1
1495573500.936	 0	 0.127705	 0.014272	 0.060711	 -1.529828	 0.736455	 2.979700	 0.664939	 0.206603	 0.650722	 0.302873	 1
1495573500.946	 0	 -0.017123	 -0.077103	 0.022483	 -1.530552	 0.736152	 2.979986	 0.665174	 0.206483	 0.650572	 0.302760	 1
1495573500.956	 0	 -0.137532	 -0.167399	 -0.004914	 -1.530990	 0.736089	 2.978494	 0.665477	 0.205899	 0.650210	 0.303271	 1
1495573500.966	 0	 -0.161739	 -0.171779	 -0.036096	 -1.531302	 0.736304	 2.976335	 0.665779	 0.205207	 0.649745	 0.304071	 1
1495573500.976	 0	 -0.115768	 -0.097428	 -0.032804	 -1.531323	 0.736618	 2.974579	 0.665936	 0.204728	 0.649422	 0.304742	 1
1495573500.986	 0	 -0.067913	 0.017482	 0.000927	 -1.530711	 0.736661	 2.973534	 0.665840	 0.204488	 0.649459	 0.305032	 1
1495573500.996	 0	 -0.054128	 0.076024	 0.018821	 -1.529586	 0.736486	 2.972814	 0.665565	 0.204360	 0.649751	 0.305096	 1
1495573501.006	 0	 -0.069276	 0.077225	 0.039067	 -1.528206	 0.736136	 2.971966	 0.665236	 0.204167	 0.650136	 0.305122	 1
1495573501.016	 0	 -0.119778	 0.034939	 0.066076	 -1.526821	 0.735504	 2.970597	 0.664986	 0.203704	 0.650487	 0.305230	 1
1495573501.026	 0	 -0.187209	 -0.007387	 0.080167	 -1.525246	 0.734660	 2.968350	 0.664782	 0.202905	 0.650800	 0.305539	 1
1495573501.036	 0	 -0.257556	 -0.064749	 0.065197	 -1.523598	 0.733854	 2.965171	 0.664643	 0.201821	 0.650988	 0.306157	 1
1495573501.046	 0	 -0.311509	 -0.125534	 0.012856	 -1.522030	 0.733424	 2.961186	 0.664573	 0.200588	 0.650967	 0.307163	 1
1495573501.056	 0	 -0.346518	 -0.153616	 -0.085928	 -1.526958	 0.726340	 2.960992	 0.666850	 0.197306	 0.650413	 0.305524	 1
1495573501.066	 0	 -0.418853	 -0.173286	 -0.207345	 -1.525073	 0.727900	 2.955627	 0.666622	 0.196349	 0.649973	 0.307566	 1
1495573501.076	 0	 -0.501652	 -0.169630	 -0.343496	 -1.522372	 0.730730	 2.949058	 0.666132	 0.195563	 0.649409	 0.310309	 1
1495573501.086	 0	 -0.648242	 -0.231941	 -0.510724	 -1.518920	 0.735017	 2.940716	 0.665442	 0.194819	 0.648567	 0.313997	 1
1495573501.096	 0	 -0.883826	 -0.269924	 -0.729430	 -1.513933	 0.740977	 2.929318	 0.664407	 0.193903	 0.647447	 0.319026	 1
1495573501.106	 0	 -1.030007	 -0.393097	 -0.945507	 -1.507804	 0.749199	 2.915144	 0.663081	 0.193069	 0.645828	 0.325506	 1
1495573501.116	 0	 -1.068503	 -0.631359	 -1.177394	 -1.502933	 0.759528	 2.899783	 0.662110	 0.192414	 0.643150	 0.333084	 1
1495573501.126	 0	 -1.163827	 -0.836926	 -1.475456	 -1.499057	 0.772531	 2.882948	 0.661392	 0.192081	 0.639315	 0.341968	 1
1495573501.136	 0	 -1.366289	 -1.007491	 -1.822826	 -1.494524	 0.788657	 2.862942	 0.660532	 0.191951	 0.634432	 0.352631	 1
1495573501.146	 0	 -1.579016	 -1.197397	 -2.211109	 -1.488739	 0.808284	 2.839006	 0.659404	 0.192037	 0.628384	 0.365298	 1
1495573501.156	 0	 -1.792383	 -1.347083	 -2.632040	 -1.481138	 0.831694	 2.810775	 0.657875	 0.192465	 0.621088	 0.380011	 1
1495573501.166	 0	 -2.044747	 -1.302211	 -3.062548	 -1.469160	 0.858924	 2.777216	 0.655307	 0.193474	 0.612988	 0.396719	 1
1495573501.176	 0	 -2.339555	 -1.046688	 -3.476800	 -1.449191	 0.889612	 2.736775	 0.650888	 0.195321	 0.604775	 0.415260	 1
1495573501.186	 0	 -2.703072	 -0.794116	 -3.862684	 -1.418888	 0.922709	 2.687436	 0.644372	 0.197763	 0.596674	 0.435494	 1
1495573501.196	 0	 -3.129044	 -0.732561	 -4.214798	 -1.376201	 0.957806	 2.625601	 0.635791	 0.200365	 0.588198	 0.457873	 1
1495573501.206	 0	 -3.534332	 -0.837774	 -4.535710	 -1.320896	 0.993341	 2.549181	 0.625699	 0.202482	 0.578737	 0.482250	 1
1495573501.216	 0	 -3.860961	 -0.939796	 -4.830513	 -1.251521	 1.028024	 2.456631	 0.614237	 0.204087	 0.568082	 0.508275	 1
1495573501.226	 0	 -4.099526	 -0.992786	 -5.072939	 -1.166605	 1.060327	 2.347205	 0.601448	 0.205390	 0.556275	 0.535381	 1
1495573501.236	 0	 -4.288841	 -1.024133	 -5.229323	 -1.065342	 1.088091	 2.220645	 0.587399	 0.206360	 0.543500	 0.563016	 1
1495573501.246	 0	 -4.433790	 -1.079811	 -5.349426	 -0.948607	 1.109349	 2.077828	 0.572227	 0.206903	 0.529772	 0.590838	 1
1495573501.256	 0	 -4.518043	 -1.231312	 -5.476799	 -0.819934	 1.122805	 1.921592	 0.556257	 0.206913	 0.514785	 0.618677	 1
1495573501.266	 0	 -4.535343	 -1.410473	 -5.585985	 -0.685020	 1.127690	 1.757133	 0.539822	 0.206349	 0.498305	 0.646301	 1
1495573501.276	 0	 -4.532399	 -1.497603	 -5.577418	 -0.550722	 1.123138	 1.592120	 0.522933	 0.205215	 0.480787	 0.673255	 1
1495573501.286	 0	 -4.523930	 -1.455542	 -5.464614	 -0.423974	 1.108999	 1.434892	 0.505449	 0.203635	 0.462966	 0.699083	 1
1495573501.296	 0	 -4.496712	 -1.402644	 -5.307751	 -0.310131	 1.086348	 1.291358	 0.487415	 0.201682	 0.445197	 0.723568	 1
1495573501.306	 0	 -4.441914	 -1.435907	 -5.151799	 -0.212289	 1.056949	 1.163937	 0.469133	 0.199162	 0.427385	 0.746720	 1
1495573501.316	 0	 -4.339804	 -1.440719	 -5.026249	 -0.130029	 1.022847	 1.052031	 0.450809	 0.196217	 0.409425	 0.768532	 1
1495573501.326	 0	 -4.201771	 -1.437969	 -4.867280	 -0.061852	 0.985763	 0.954436	 0.432614	 0.193029	 0.391450	 0.788893	 1
1495573501.336	 0	 -4.105091	 -1.433664	 -4.631542	 -0.006876	 0.946546	 0.870348	 0.414608	 0.189376	 0.373807	 0.807779	 1
1495573501.346	 0	 -4.048242	 -1.383347	 -4.353760	 0.036711	 0.905713	 0.798519	 0.396639	 0.185264	 0.356892	 0.825217	 1
1495573501.356	 0	 -4.023533	 -1.211595	 -4.041518	 0.071335	 0.863707	 0.737645	 0.378484	 0.181008	 0.341132	 0.841198	 1
1495573501.366	 0	 -3.949832	 -0.890920	 -3.696192	 0.099712	 0.821344	 0.686655	 0.360078	 0.177246	 0.326984	 0.855575	 1
1495573501.376	 0	 -3.778757	 -0.502474	 -3.367695	 0.124339	 0.779945	 0.644080	 0.341735	 0.174601	 0.314579	 0.868200	 1
1495573501.386	 0	 -3.591013	 -0.150577	 -3.107973	 0.146943	 0.740054	 0.607955	 0.323645	 0.173253	 0.303636	 0.879228	 1
1495573501.396	 0	 -3.416720	 0.052159	 -2.913221	 0.167735	 0.701687	 0.576627	 0.305978	 0.172799	 0.293679	 0.888972	 1
1495573501.406	 0	 -3.284483	 0.183365	 -2.787982	 0.186819	 0.664515	 0.548755	 0.288718	 0.172866	 0.284298	 0.897738	 1
1495573501.416	 0	 -3.189474	 0.314584	 -2.672561	 0.204747	 0.628145	 0.523635	 0.271686	 0.173428	 0.275382	 0.905690	 1
1495573501.426	 0	 -3.075481	 0.415020	 -2.542451	 0.221513	 0.592740	 0.501192	 0.254980	 0.174389	 0.266989	 0.912847	 1
1495573501.436	 0	 -2.962263	 0.387619	 -2.462017	 0.236672	 0.558399	 0.480756	 0.238773	 0.175375	 0.258850	 0.919363	 1
1495573501.446	 0	 -2.922901	 0.231181	 -2.479764	 0.249427	 0.524416	 0.461241	 0.222930	 0.175749	 0.250444	 0.925577	 1
1495573501.456	 0	 -2.940529	 0.047932	 -2.559071	 0.259843	 0.490008	 0.441805	 0.207132	 0.175333	 0.241437	 0.931699	 1
1495573501.466	 0	 -2.941881	 -0.291364	 -2.592102	 0.266676	 0.455217	 0.422557	 0.191512	 0.173535	 0.231819	 0.937800	 1
1495573501.476	 0	 -2.936379	 -0.515439	 -2.547786	 0.269803	 0.420498	 0.404079	 0.176207	 0.170355	 0.221964	 0.943749	 1
1495573501.486	 0	 -2.902579	 -0.593528	 -2.430978	 0.270863	 0.386197	 0.386906	 0.161122	 0.166592	 0.212374	 0.949307	 1
1495573501.496	 0	 -2.808204	 -0.601900	 -2.181511	 0.270200	 0.353227	 0.371920	 0.146579	 0.162497	 0.203612	 0.954281	 1
1495573501.506	 0	 -2.675598	 -0.313374	 -1.864063	 0.270235	 0.322288	 0.359813	 0.132627	 0.159264	 0.196274	 0.958395	 1
1495573501.516	 0	 -2.558101	 0.038049	 -1.519198	 0.272496	 0.293415	 0.350973	 0.119144	 0.157589	 0.190662	 0.961571	 1
1495573501.526	 0	 -2.436434	 0.236806	 -1.291633	 0.276254	 0.266343	 0.344611	 0.106168	 0.156997	 0.186329	 0.964034	 1
1495573501.536	 0	 -2.278020	 0.077175	 -1.271377	 0.279119	 0.240818	 0.338704	 0.093973	 0.156172	 0.182167	 0.966227	 1
1495573501.546	 0	 -2.073551	 -0.300251	 -1.406415	 0.278758	 0.216912	 0.331305	 0.082952	 0.153897	 0.177170	 0.968527	 1
1495573501.556	 0	 -1.894029	 -0.586455	 -1.586431	 0.275548	 0.194292	 0.321730	 0.072940	 0.150315	 0.171055	 0.970992	 1
1495573501.566	 0	 -1.775028	 -0.676900	 -1.757951	 0.271063	 0.172567	 0.309962	 0.063583	 0.146181	 0.163881	 0.973515	 1
1495573501.576	 0	 -1.684936	 -0.621979	 -1.794217	 0.266818	 0.151554	 0.297165	 0.054571	 0.142278	 0.156259	 0.975890	 1
1495573501.586	 0	 -1.564314	 -0.554658	 -1.691203	 0.262961	 0.131864	 0.284725	 0.046094	 0.138761	 0.148902	 0.977982	 1
1495573501.596	 0	 -1.439290	 -0.560292	 -1.514232	 0.258828	 0.113844	 0.273436	 0.038329	 0.135331	 0.142207	 0.979793	 1
1495573501.606	 0	 -1.340720	 -0.556931	 -1.256048	 0.254278	 0.097455	 0.264140	 0.031217	 0.131906	 0.136591	 0.981310	 1
1495573501.616	 0	 -1.264997	 -0.568197	 -0.958610	 0.249317	 0.082627	 0.257379	 0.024699	 0.128462	 0.132323	 0.982537	 1
1495573501.626	 0	 -1.212037	 -0.518066	 -0.716127	 0.244323	 0.069030	 0.252940	 0.018616	 0.125133	 0.129290	 0.983504	 1
1495573501.636	 0	 -1.167827	 -0.336949	 -0.629223	 0.240695	 0.056207	 0.249588	 0.012742	 0.122549	 0.126869	 0.984238	 1
1495573501.646	 0	 -1.141074	 -0.116254	 -0.697997	 0.239209	 0.043626	 0.245813	 0.006867	 0.121046	 0.124275	 0.984813	 1
1495573501.656	 0	 -1.148044	 0.121837	 -0.901427	 0.239987	 0.030644	 0.240360	 0.000752	 0.120652	 0.120836	 0.985313	 1
1495573501.666	 0	 -1.154442	 0.280373	 -1.072691	 0.242660	 0.017121	 0.233138	 -0.005636	 0.121195	 0.116475	 0.985755	 1
1495573501.676	 0	 -1.128978	 0.177701	 -1.177508	 0.244956	 0.003434	 0.224777	 -0.012008	 0.121592	 0.111520	 0.986222	 1
1495573501.686	 0	 -1.047108	 -0.145794	 -1.209907	 0.244332	 -0.009737	 0.215760	 -0.017925	 0.120632	 0.106277	 0.986829	 1
1495573501.696	 0	 -0.905333	 -0.422119	 -1.150549	 0.240614	 -0.021577	 0.206755	 -0.023037	 0.118264	 0.101154	 0.987548	 1
1495573501.706	 0	 -0.730706	 -0.499408	 -1.036196	 0.235507	 -0.031509	 0.198311	 -0.027196	 0.115341	 0.096454	 0.988258	 1
1495573501.716	 0	 -0.618877	 -0.429811	 -0.908614	 0.230774	 -0.039813	 0.190707	 -0.030642	 0.112703	 0.092276	 0.988860	 1
1495573501.726	 0	 -0.621022	 -0.351579	 -0.794354	 0.226821	 -0.047581	 0.184180	 -0.033939	 0.110483	 0.088663	 0.989333	 1
1495573501.736	 0	 -0.690000	 -0.250005	 -0.710091	 0.223787	 -0.055648	 0.178613	 -0.037491	 0.108706	 0.085502	 0.989680	 1
1495573501.746	 0	 -0.811049	 -0.130349	 -0.640845	 0.221908	 -0.064614	 0.173967	 -0.041596	 0.107461	 0.082731	 0.989888	 1
1495573501.756	 0	 -0.944884	 -0.028766	 -0.576165	 0.221157	 -0.074688	 0.170216	 -0.046347	 0.106723	 0.080322	 0.989955	 1
1495573501.766	 0	 -1.089600	 -0.011118	 -0.506158	 0.220838	 -0.085976	 0.167431	 -0.051769	 0.106136	 0.078313	 0.989910	 1
1495573501.776	 0	 -1.224793	 -0.095600	 -0.446974	 0.219999	 -0.098485	 0.165566	 -0.057824	 0.105224	 0.076704	 0.989798	 1
1495573501.786	 0	 -1.321360	 -0.265393	 -0.423909	 0.217668	 -0.111950	 0.164212	 -0.064322	 0.103523	 0.075344	 0.989681	 1
1495573501.796	 0	 -1.371750	 -0.439683	 -0.430588	 0.213603	 -0.126013	 0.162964	 -0.071057	 0.100938	 0.074078	 0.989583	 1
1495573501.806	 0	 -1.400587	 -0.572624	 -0.450544	 0.208034	 -0.140416	 0.161536	 -0.077900	 0.097607	 0.072786	 0.989498	 1
1495573501.816	 0	 -1.422944	 -0.653476	 -0.468757	 0.201479	 -0.155082	 0.159879	 -0.084831	 0.093793	 0.071445	 0.989395	 1
1495573501.826	 0	 -1.437481	 -0.611089	 -0.498245	 0.194908	 -0.169956	 0.157887	 -0.091856	 0.089985	 0.069971	 0.989227	 1
1495573501.836	 0	 -1.444462	 -0.432557	 -0.512126	 0.189741	 -0.184934	 0.155621	 -0.098974	 0.086893	 0.068332	 0.988931	 1
1495573501.846	 0	 -1.434485	 -0.203989	 -0.507132	 0.186702	 -0.199849	 0.153299	 -0.106134	 0.084872	 0.066589	 0.988483	 1
1495573501.856	 0	 -1.423222	 0.044684	 -0.518989	 0.186010	 -0.214645	 0.150857	 -0.113309	 0.084037	 0.064680	 0.987884	 1
1495573501.866	 0	 -1.445785	 0.238991	 -0.569105	 0.187320	 -0.229623	 0.148027	 -0.120615	 0.084219	 0.062452	 0.987147	 1
1495573501.876	 0	 -1.522674	 0.349295	 -0.640847	 0.189783	 -0.245350	 0.144662	 -0.128294	 0.084988	 0.059838	 0.986274	 1
1495573501.886	 0	 -1.651062	 0.326831	 -0.708076	 0.192204	 -0.262339	 0.140864	 -0.136562	 0.085732	 0.056928	 0.985272	 1
1495573501.896	 0	 -1.826616	 0.221572	 -0.768016	 0.193580	 -0.281042	 0.136787	 -0.145617	 0.085936	 0.053846	 0.984130	 1
1495573501.906	 0	 -2.072635	 0.135625	 -0.818469	 0.193905	 -0.302044	 0.132591	 -0.155753	 0.085569	 0.050654	 0.982778	 1
1495573501.916	 0	 0.508357	 -3.629191	 -0.654365	 0.173735	 -0.311324	 0.126649	 -0.159564	 0.075764	 0.048858	 0.983063	 1
1495573501.926	 0	 0.275641	 -1.506869	 -0.065137	 0.150002	 -0.305528	 0.123939	 -0.156038	 0.064519	 0.049656	 0.984390	 1
1495573501.936	 0	 0.657234	 -1.767046	 -0.085561	 0.133348	 -0.301410	 0.122334	 -0.153548	 0.056589	 0.050318	 0.985235	 1
1495573501.946	 0	 0.764730	 -1.375533	 0.005326	 0.119109	 -0.294294	 0.121301	 -0.149656	 0.049897	 0.051141	 0.986153	 1
1495573501.956	 0	 0.894798	 -1.577908	 -0.024265	 0.103895	 -0.285812	 0.120181	 -0.145058	 0.042760	 0.051980	 0.987131	 1
1495573501.966	 0	 0.969209	 -2.021635	 -0.078489	 0.084695	 -0.276511	 0.118605	 -0.139935	 0.033696	 0.052825	 0.988176	 1
1495573501.976	 0	 1.100809	 -2.429619	 -0.187560	 0.060850	 -0.266138	 0.116223	 -0.134143	 0.022398	 0.053509	 0.989263	 1
1495573501.986	 0	 1.394857	 -2.514050	 -0.368775	 0.034832	 -0.253493	 0.112305	 -0.127159	 0.010155	 0.053467	 0.990388	 1
1495573501.996	 0	 2.199730	 -0.830846	 -0.428342	 0.022303	 -0.231071	 0.107706	 -0.115701	 0.004856	 0.052181	 0.991901	 1
1495573502.006	 0	 1.576422	 1.491160	 -0.581663	 0.029798	 -0.213798	 0.101793	 -0.107299	 0.009367	 0.048991	 0.992975	 1
1495573502.016	 0	 1.950318	 1.309809	 -0.964614	 0.043974	 -0.195557	 0.092513	 -0.098506	 0.017344	 0.043864	 0.994018	 1
1495573502.026	 0	 1.549062	 -0.099839	 -1.294021	 0.044224	 -0.179711	 0.079484	 -0.090517	 0.018439	 0.037579	 0.995015	 1
1495573502.036	 0	 1.495819	 -0.945740	 -1.451127	 0.032852	 -0.166251	 0.064551	 -0.083504	 0.013681	 0.030791	 0.995938	 1
1495573502.046	 0	 1.279183	 1.205172	 -1.461162	 0.037034	 -0.153364	 0.049513	 -0.077027	 0.016560	 0.023259	 0.996620	 1
1495573502.056	 0	 1.320692	 0.932218	 -1.401222	 0.044769	 -0.140170	 0.034728	 -0.070387	 0.021109	 0.015749	 0.997172	 1
1495573502.066	 0	 0.829280	 0.979772	 -1.223637	 0.052615	 -0.131371	 0.021622	 -0.065895	 0.025537	 0.009057	 0.997459	 1
1495573502.076	 0	 0.556493	 0.644952	 -1.109454	 0.058589	 -0.126023	 0.010000	 -0.063088	 0.028917	 0.003143	 0.997584	 1
1495573502.086	 0	 0.546162	 0.246854	 -1.011769	 0.060514	 -0.121334	 -0.000647	 -0.060592	 0.030216	 -0.002157	 0.997703	 1
1495573502.096	 0	 0.703957	 0.296101	 -0.897022	 0.061838	 -0.115421	 -0.010253	 -0.057492	 0.031158	 -0.006899	 0.997836	 1
1495573502.106	 0	 0.912770	 0.825774	 -0.780390	 0.067507	 -0.107426	 -0.018843	 -0.053336	 0.034202	 -0.011214	 0.997928	 1
1495573502.116	 0	 1.120015	 1.540313	 -0.683947	 0.080247	 -0.097427	 -0.026607	 -0.048118	 0.040709	 -0.015230	 0.997896	 1
1495573502.126	 0	 1.288468	 1.912484	 -0.611150	 0.097907	 -0.085616	 -0.033940	 -0.041908	 0.049607	 -0.019027	 0.997708	 1
1495573502.136	 0	 1.071038	 1.504719	 -0.599123	 0.113807	 -0.074821	 -0.041050	 -0.036167	 0.057587	 -0.022603	 0.997429	 1
1495573502.146	 0	 0.390809	 0.260817	 -0.646824	 0.119356	 -0.069943	 -0.047972	 -0.033462	 0.060426	 -0.026011	 0.997272	 1
1495573502.156	 0	 -0.208353	 -1.242324	 -0.640622	 0.110299	 -0.071391	 -0.054265	 -0.034126	 0.056033	 -0.029037	 0.997423	 1
1495573502.166	 0	 -0.590423	 -2.590290	 -0.568398	 0.087476	 -0.076950	 -0.059588	 -0.037110	 0.044817	 -0.031420	 0.997811	 1
1495573502.176	 0	 -0.839917	 -3.794944	 -0.491486	 0.052508	 -0.085007	 -0.064072	 -0.041614	 0.027574	 -0.033106	 0.998204	 1
1495573502.186	 0	 0.589688	 -1.128945	 -0.446984	 0.028353	 -0.084272	 -0.068643	 -0.041609	 0.015600	 -0.034878	 0.998403	 1
1495573502.196	 0	 0.073720	 1.338330	 -0.438680	 0.034456	 -0.085153	 -0.072765	 -0.041903	 0.018748	 -0.037069	 0.998258	 1
1495573502.206	 0	 0.985058	 0.711905	 -0.388116	 0.044176	 -0.077314	 -0.077239	 -0.037757	 0.023545	 -0.039425	 0.998231	 1
1495573502.216	 0	 0.773128	 -0.935570	 -0.211677	 0.038865	 -0.069075	 -0.080147	 -0.033718	 0.020787	 -0.040702	 0.998386	 1
1495573502.226	 0	 1.096009	 0.136074	 -0.093142	 0.035361	 -0.057915	 -0.081652	 -0.028204	 0.018839	 -0.041302	 0.998571	 1
1495573502.236	 0	 1.211356	 -0.162128	 0.039568	 0.038013	 -0.046043	 -0.082139	 -0.022216	 0.019929	 -0.041477	 0.998694	 1
1495573502.246	 0	 1.417683	 0.127245	 0.146826	 0.036167	 -0.032157	 -0.081371	 -0.015327	 0.018719	 -0.040953	 0.998868	 1
1495573502.256	 0	 1.764738	 -0.273644	 0.238876	 0.036314	 -0.015484	 -0.079857	 -0.007010	 0.018450	 -0.040051	 0.999003	 1
1495573502.266	 0	 2.052099	 0.052301	 0.256145	 0.036832	 0.004237	 -0.078058	 0.002835	 0.018318	 -0.038974	 0.999068	 1
1495573502.276	 0	 0.226985	 -0.033287	 0.147140	 0.036494	 0.012959	 -0.076529	 0.007171	 0.017985	 -0.038130	 0.999085	 1
1495573502.286	 0	 -0.351068	 0.109226	 0.165086	 0.037099	 0.009484	 -0.074980	 0.005433	 0.018358	 -0.037386	 0.999117	 1
1495573502.296	 0	 -0.018131	 -0.003687	 0.231731	 0.036985	 0.008813	 -0.072760	 0.005075	 0.018319	 -0.036284	 0.999161	 1
1495573502.306	 0	 0.061184	 0.014035	 0.192784	 0.036075	 0.005183	 -0.070708	 0.003227	 0.017933	 -0.035294	 0.999211	 1
1495573502.316	 0	 0.068660	 0.019857	 0.093480	 0.036298	 0.005912	 -0.069560	 0.003585	 0.018034	 -0.034713	 0.999228	 1
1495573502.326	 0	 0.054537	 0.019443	 0.013207	 0.035501	 0.003578	 -0.069266	 0.002402	 0.017677	 -0.034589	 0.999242	 1
1495573502.336	 0	 0.010832	 0.001417	 0.007411	 0.035578	 0.003761	 -0.069214	 0.002495	 0.017712	 -0.034561	 0.999243	 1
1495573502.346	 0	 0.004429	 -0.000699	 0.007351	 0.035560	 0.003808	 -0.069137	 0.002517	 0.017703	 -0.034522	 0.999244	 1
1495573502.356	 0	 0.002305	 -0.001764	 0.006258	 0.035553	 0.003838	 -0.069076	 0.002531	 0.017699	 -0.034492	 0.999245	 1
1495573502.366	 0	 0.002289	 0.001417	 0.006292	 0.034473	 0.002856	 -0.069011	 0.002021	 0.017176	 -0.034469	 0.999256	 1
1495573502.376	 0	 0.002287	 0.000354	 0.006278	 0.034461	 0.002891	 -0.068945	 0.002038	 0.017169	 -0.034436	 0.999257	 1
1495573502.386	 0	 0.003355	 0.001415	 0.006297	 0.034464	 0.002921	 -0.068879	 0.002053	 0.017171	 -0.034402	 0.999258	 1
1495573502.396	 0	 -0.002006	 0.003549	 0.007359	 0.033517	 0.001928	 -0.068804	 0.001540	 0.016715	 -0.034374	 0.999268	 1
1495573502.406	 0	 0.003323	 0.001413	 0.007361	 0.033520	 0.001958	 -0.068732	 0.001554	 0.016716	 -0.034338	 0.999269	 1
1495573502.416	 0	 0.001180	 -0.000720	 0.006249	 0.032851	 0.001097	 -0.068665	 0.001112	 0.016396	 -0.034312	 0.999276	 1
1495573502.426	 0	 0.000091	 -0.000707	 0.008382	 0.032849	 0.001111	 -0.068593	 0.001118	 0.016395	 -0.034276	 0.999277	 1
1495573502.436	 0	 0.001156	 0.000343	 0.007328	 0.032122	 0.000470	 -0.068525	 0.000785	 0.016043	 -0.034248	 0.999284	 1
1495573502.446	 0	 -0.000980	 0.000338	 0.006243	 0.031668	 -0.000295	 -0.068463	 0.000394	 0.015829	 -0.034223	 0.999289	 1
1495573502.456	 0	 0.001126	 -0.000729	 0.007307	 0.031045	 -0.000957	 -0.068397	 0.000052	 0.015529	 -0.034195	 0.999295	 1
1495573502.466	 0	 0.001115	 0.000330	 0.007316	 0.030515	 -0.001540	 -0.068326	 -0.000248	 0.015274	 -0.034164	 0.999299	 1
1495573502.476	 0	 0.003239	 0.001385	 0.007338	 0.029984	 -0.002061	 -0.068255	 -0.000518	 0.015018	 -0.034132	 0.999304	 1
1495573502.486	 0	 0.000028	 0.000324	 0.007306	 0.029544	 -0.002509	 -0.068179	 -0.000750	 0.014806	 -0.034097	 0.999309	 1
1495573502.496	 0	 -0.001031	 0.003505	 0.006268	 0.029095	 -0.002936	 -0.068118	 -0.000972	 0.014589	 -0.034070	 0.999312	 1
1495573502.506	 0	 0.002144	 0.001374	 0.007326	 0.028555	 -0.003335	 -0.068053	 -0.001180	 0.014325	 -0.034040	 0.999317	 1
1495573502.516	 0	 0.001066	 0.000309	 0.007305	 0.028145	 -0.003738	 -0.067983	 -0.001390	 0.014127	 -0.034008	 0.999321	 1
1495573502.526	 0	 0.003200	 -0.001830	 0.006219	 0.027801	 -0.004059	 -0.067923	 -0.001556	 0.013961	 -0.033980	 0.999324	 1
1495573502.536	 0	 0.000012	 0.001356	 0.005172	 0.027533	 -0.004272	 -0.067874	 -0.001668	 0.013831	 -0.033956	 0.999326	 1
1495573502.546	 0	 0.003170	 0.000302	 0.008381	 0.027230	 -0.004505	 -0.067798	 -0.001789	 0.013683	 -0.033920	 0.999329	 1
1495573502.556	 0	 0.001053	 0.000292	 0.006230	 0.026962	 -0.004779	 -0.067733	 -0.001931	 0.013554	 -0.033889	 0.999332	 1
1495573502.566	 0	 0.002116	 0.000289	 0.006235	 0.026820	 -0.004964	 -0.067672	 -0.002027	 0.013486	 -0.033860	 0.999334	 1
1495573502.576	 0	 0.001047	 0.001352	 0.006241	 0.026633	 -0.005153	 -0.067617	 -0.002125	 0.013396	 -0.033833	 0.999335	 1
1495573502.586	 0	 0.001030	 0.001356	 0.007309	 0.026464	 -0.005406	 -0.067551	 -0.002254	 0.013315	 -0.033802	 0.999337	 1
1495573502.596	 0	 -0.001080	 0.003472	 0.005185	 0.026264	 -0.005553	 -0.067501	 -0.002332	 0.013218	 -0.033778	 0.999339	 1
1495573502.606	 0	 0.002074	 -0.000770	 0.008356	 0.026081	 -0.005749	 -0.067425	 -0.002433	 0.013130	 -0.033741	 0.999341	 1
1495573502.616	 0	 0.001015	 -0.000776	 0.007280	 0.025910	 -0.005932	 -0.067349	 -0.002528	 0.013047	 -0.033704	 0.999344	 1
1495573502.626	 0	 -0.000039	 0.002408	 0.006244	 0.025726	 -0.006105	 -0.067284	 -0.002618	 0.012958	 -0.033672	 0.999346	 1
1495573502.636	 0	 0.001009	 0.000284	 0.007292	 0.025564	 -0.006255	 -0.067218	 -0.002696	 0.012879	 -0.033640	 0.999347	 1
1495573502.646	 0	 -0.000063	 -0.000779	 0.007272	 0.025387	 -0.006445	 -0.067153	 -0.002794	 0.012794	 -0.033608	 0.999349	 1
1495573502.656	 0	 0.002069	 0.000279	 0.007295	 0.025270	 -0.006591	 -0.067082	 -0.002870	 0.012738	 -0.033573	 0.999351	 1
1495573502.666	 0	 0.003132	 0.000276	 0.007300	 0.025136	 -0.006691	 -0.067011	 -0.002922	 0.012673	 -0.033539	 0.999353	 1
1495573502.676	 0	 0.001008	 0.000273	 0.006219	 0.025059	 -0.006823	 -0.066945	 -0.002990	 0.012636	 -0.033506	 0.999354	 1
1495573502.686	 0	 -0.000072	 0.000279	 0.007282	 0.024947	 -0.006917	 -0.066879	 -0.003040	 0.012582	 -0.033474	 0.999356	 1
1495573502.696	 0	 0.002055	 -0.001851	 0.007267	 0.024875	 -0.006996	 -0.066814	 -0.003080	 0.012547	 -0.033441	 0.999357	 1
1495573502.706	 0	 -0.000064	 0.001335	 0.006225	 0.024779	 -0.007133	 -0.066753	 -0.003151	 0.012501	 -0.033412	 0.999359	 1
1495573502.716	 0	 0.001011	 0.000264	 0.005149	 0.024723	 -0.007170	 -0.066692	 -0.003171	 0.012474	 -0.033381	 0.999360	 1
1495573502.726	 0	 -0.000080	 0.000276	 0.007280	 0.024636	 -0.007272	 -0.066626	 -0.003223	 0.012432	 -0.033349	 0.999361	 1
1495573502.736	 0	 0.002048	 -0.000791	 0.007278	 0.024557	 -0.007422	 -0.066555	 -0.003300	 0.012395	 -0.033314	 0.999363	 1
1495573502.746	 0	 0.000994	 0.001330	 0.006229	 0.024440	 -0.007541	 -0.066495	 -0.003362	 0.012338	 -0.033285	 0.999364	 1
1495573502.756	 0	 0.000991	 0.001328	 0.006228	 0.024337	 -0.007623	 -0.066429	 -0.003405	 0.012288	 -0.033252	 0.999366	 1
1495573502.766	 0	 0.002056	 0.001325	 0.006234	 0.024215	 -0.007695	 -0.066364	 -0.003444	 0.012228	 -0.033220	 0.999367	 1
1495573502.776	 0	 -0.001157	 0.001335	 0.007286	 0.024123	 -0.007769	 -0.066297	 -0.003482	 0.012183	 -0.033187	 0.999369	 1
1495573502.786	 0	 -0.000083	 0.000262	 0.006209	 0.024013	 -0.007882	 -0.066232	 -0.003541	 0.012130	 -0.033154	 0.999370	 1
1495573502.796	 0	 0.002042	 -0.002932	 0.006180	 0.023872	 -0.007928	 -0.066167	 -0.003567	 0.012060	 -0.033122	 0.999372	 1
1495573502.806	 0	 0.000966	 -0.000799	 0.007269	 0.023834	 -0.008005	 -0.066095	 -0.003606	 0.012042	 -0.033087	 0.999373	 1
1495573502.816	 0	 -0.000089	 0.000260	 0.006208	 0.023760	 -0.008075	 -0.066029	 -0.003643	 0.012006	 -0.033054	 0.999375	 1
1495573502.826	 0	 -0.000097	 0.002391	 0.007303	 0.023699	 -0.008109	 -0.065958	 -0.003661	 0.011977	 -0.033019	 0.999376	 1
1495573502.836	 0	 0.000966	 0.001325	 0.007295	 0.023656	 -0.008166	 -0.065887	 -0.003691	 0.011956	 -0.032983	 0.999378	 1
1495573502.846	 0	 0.076614	 -0.063677	 0.003689	 0.023282	 -0.007836	 -0.065842	 -0.003533	 0.011764	 -0.032958	 0.999381	 1
1495573502.856	 0	 -0.031019	 0.012012	 0.007256	 0.023112	 -0.007935	 -0.065785	 -0.003585	 0.011680	 -0.032930	 0.999383	 1
1495573502.866	 0	 -0.003251	 0.025776	 0.006503	 0.023296	 -0.008033	 -0.065724	 -0.003631	 0.011773	 -0.032900	 0.999383	 1
1495573502.886	 1	 -0.005441	 0.002396	 0.007272	 0.023441	 -0.008359	 -0.065602	 -0.003793	 0.011851	 -0.032842	 0.999383	 1
1495573502.896	 1	 -0.005463	 -0.002914	 0.008276	 0.023408	 -0.008457	 -0.065524	 -0.003842	 0.011836	 -0.032803	 0.999384	 1
1495573502.906	 1	 -0.002248	 -0.000800	 0.007250	 0.023361	 -0.008531	 -0.065452	 -0.003881	 0.011814	 -0.032767	 0.999386	 1
